acc_x,acc_y,acc_z,gyro_x,gyro_y,gyro_z,class
-106,-270,10013,4,-21,11,0
-107,-265,10012,3,-18,7,0
-124,-293,9992,3,-18,10,0
-105,-244,10011,4,-21,12,0
-123,-250,9999,6,-21,12,0
-94,-277,10018,4,-19,11,0
-124,-269,10012,3,-20,12,0
-105,-262,10025,5,-20,10,0
-112,-256,10001,4,-20,10,0
-104,-273,10007,3,-18,10,0
-104,-273,10007,3,-18,10,0
-147,-244,10011,4,-17,10,0
-101,-276,10000,2,-15,9,0
-122,-252,10006,3,-21,10,0
-113,-262,10031,6,-21,10,0
-112,-265,10009,3,-20,9,0
-95,-248,10013,3,-19,10,0
-107,-258,9999,6,-20,10,0
-108,-266,10003,5,-19,9,0
-90,-258,10005,3,-18,10,0
-90,-258,10005,3,-18,10,0
-80,-252,10024,3,-18,9,0
-95,-256,10021,4,-15,11,0
-86,-270,9973,6,-18,11,0
-107,-275,10010,7,-21,11,0
-101,-254,9998,4,-20,12,0
-110,-266,9993,5,-21,10,0
-111,-248,10007,5,-20,9,0
-124,-271,10030,4,-20,9,0
-75,-297,10011,4,-20,10,0
-75,-297,10011,4,-20,10,0
-108,-252,9992,3,-21,10,0
-110,-241,9982,3,-19,10,0
-78,-246,10004,4,-21,13,0
-94,-265,10031,6,-21,13,0
-95,-276,9967,3,-20,13,0
-89,-277,9993,4,-19,12,0
-98,-281,10010,4,-19,12,0
-122,-273,10011,3,-21,12,0
-89,-295,10005,3,-21,9,0
-89,-295,10005,3,-21,9,0
-143,-267,10004,3,-21,10,0
-89,-222,9998,2,-19,10,0
-117,-252,10021,4,-20,11,0
-86,-234,10021,6,-22,11,0
-116,-245,10023,5,-20,12,0
-130,-279,10017,4,-21,11,0
-108,-267,9988,4,-20,12,0
-77,-289,10013,4,-21,10,0
-93,-319,10016,4,-19,10,0
-93,-319,10016,4,-18,10,0
-90,-301,10011,4,-18,10,0
-101,-293,9992,4,-17,9,0
-96,-262,9980,4,-19,10,0
-112,-250,10013,5,-21,10,0
-95,-256,10017,6,-22,10,0
-114,-233,9987,5,-22,12,0
-113,-256,9997,4,-22,11,0
-117,-260,10013,4,-20,11,0
-96,-252,9991,4,-19,9,0
-96,-252,9991,4,-19,10,0
-116,-264,10022,4,-19,10,0
-124,-290,10006,3,-17,9,0
-104,-279,9987,6,-17,11,0
-102,-273,10017,7,-21,11,0
-78,-241,10009,4,-20,11,0
-95,-257,10007,4,-19,10,0
-124,-254,10010,6,-18,10,0
-89,-247,10009,4,-20,10,0
-114,-244,9960,2,-18,9,0
-114,-244,10027,4,-19,10,0
-100,-263,10027,4,-19,10,0
-86,-253,10028,2,-19,8,0
-112,-273,10027,2,-18,12,0
-96,-288,10003,6,-21,11,0
-75,-306,10004,6,-21,10,0
-94,-296,9982,4,-21,12,0
-96,-290,10036,5,-20,10,0
-118,-258,10028,5,-21,9,0
-117,-264,10010,3,-20,11,0
-144,-262,9998,4,-19,11,0
-144,-262,9998,6,-18,11,0
-114,-254,10010,6,-18,11,0
-139,-233,10018,4,-16,12,0
-107,-262,10003,6,-20,11,0
-125,-256,10005,5,-21,10,0
-101,-208,10011,4,-20,11,0
-95,-262,10023,4,-18,11,0
-113,-288,10027,4,-20,9,0
-65,-290,9982,3,-21,10,0
-105,-269,10001,4,-22,12,0
-105,-269,10001,4,-22,12,0
-105,-266,10028,3,-20,10,0
-102,-266,9994,2,-19,9,0
-106,-285,10019,5,-21,12,0
-105,-239,9973,6,-21,10,0
-112,-214,9964,4,-19,10,0
-116,-211,10027,4,-18,11,0
-133,-242,9999,4,-19,11,0
-106,-242,10003,4,-19,11,0
-141,-227,10012,4,-20,10,0
-141,-227,10012,4,-20,10,0
-123,-254,10011,3,-19,9,0
-62,-273,10013,3,-16,10,0
-90,-296,9999,4,-20,13,0
-72,-313,10012,4,-21,11,0
-96,-278,10007,4,-21,11,0
-82,-300,9994,4,-21,10,0
-65,-267,10010,4,-21,9,0
-111,-267,10040,3,-19,10,0
-122,-270,9991,4,-20,9,0
-122,-270,9991,4,-20,9,0
-122,-257,10027,2,-18,9,0
-117,-276,9970,4,-15,9,0
-117,-287,10018,6,-20,12,0
-98,-281,10006,5,-23,12,0
-90,-276,10000,4,-20,11,0
-70,-272,10004,4,-21,11,0
-41,-229,10021,5,-20,12,0
-82,-240,9999,5,-20,11,0
-95,-223,9992,4,-21,10,0
-95,-223,9992,4,-21,10,0
-101,-239,10009,4,-20,10,0
-162,-241,9999,3,-17,9,0
-124,-227,10017,6,-19,10,0
-153,-238,10033,4,-23,9,0
-159,-250,9985,6,-23,10,0
-153,-277,9986,4,-18,10,0
-153,-295,10018,3,-20,10,0
-89,-287,9974,4,-19,10,0
-81,-325,10012,4,-18,10,0
-81,-325,10012,4,-18,9,0
-95,-309,9985,4,-20,9,0
-95,-277,10012,4,-19,10,0
-34,-260,9994,6,-20,11,0
-49,-254,9987,6,-23,9,0
-62,-232,10001,6,-20,9,0
-68,-242,9993,6,-22,10,0
-84,-215,10021,3,-20,11,0
-78,-252,9993,3,-19,10,0
-136,-270,10012,2,-18,10,0
-136,-270,10012,3,-19,10,0
-125,-271,10021,3,-19,10,0
-125,-301,10012,3,-18,9,0
-130,-315,9982,3,-20,13,0
-135,-303,9999,5,-21,12,0
-78,-311,10021,4,-21,12,0
-89,-264,10003,5,-21,10,0
-105,-240,10013,4,-21,10,0
-77,-242,10003,6,-21,9,0
-83,-203,10024,6,-19,10,0
-83,-203,10024,5,-20,10,0
-98,-214,10028,5,-20,10,0
-72,-216,9997,3,-15,9,0
-105,-290,10028,2,-20,10,0
-96,-220,10025,5,-21,10,0
-96,-220,10025,5,-21,10,0
-94,-222,10006,4,-20,12,0
-104,-224,10006,5,-22,12,0
-117,-235,10004,5,-22,11,0
-69,-256,9997,3,-20,10,0
-128,-336,10010,4,-18,11,0
-113,-294,10001,4,-20,10,0
-122,-267,10013,3,-20,11,0
-128,-302,9993,4,-20,10,0
-128,-302,9993,4,-20,10,0
-119,-279,9997,4,-21,8,0
-96,-259,10011,2,-20,11,0
-62,-277,10001,5,-22,14,0
-82,-263,10009,6,-21,12,0
-81,-258,9998,4,-20,12,0
-87,-254,10016,4,-20,11,0
-104,-205,9998,4,-20,10,0
-95,-200,9984,4,-18,10,0
-77,-191,9988,4,-21,10,0
-77,-191,9988,4,-21,10,0
-87,-202,9988,3,-20,9,0
-101,-228,10004,3,-19,10,0
-118,-250,9974,3,-19,12,0
-88,-287,10025,5,-21,12,0
-143,-300,10003,3,-20,12,0
-114,-311,9985,4,-20,12,0
-125,-287,10015,5,-20,12,0
-107,-277,10001,5,-19,10,0
-126,-230,9990,4,-21,12,0
-126,-230,9990,4,-21,12,0
-104,-271,10043,3,-19,10,0
-111,-266,9998,2,-14,8,0
-101,-251,9992,5,-20,10,0
-106,-263,9994,6,-20,10,0
-96,-299,9998,3,-20,10,0
-55,-308,10003,3,-20,10,0
-75,-306,9993,4,-20,10,0
-72,-326,10000,4,-18,10,0
-66,-302,9996,4,-20,13,0
-66,-302,9996,4,-20,13,0
-123,-301,10016,3,-18,11,0
-124,-296,9993,4,-17,10,0
-111,-259,9991,6,-19,12,0
-116,-224,9992,5,-21,9,0
-130,-229,9996,3,-20,10,0
-116,-196,9998,4,-20,12,0
-102,-199,9993,5,-17,12,0
-144,-212,10003,6,-20,11,0
-154,-222,10012,6,-17,10,0
-154,-222,10012,6,-20,10,0
-163,-221,9993,4,-20,10,0
-133,-266,9999,3,-20,8,0
-92,-284,10027,4,-20,10,0
-78,-332,9981,4,-20,10,0
-75,-338,9994,4,-18,10,0
-58,-329,10000,4,-18,12,0
-74,-262,10015,4,-19,11,0
-71,-247,9992,6,-20,10,0
-104,-199,9998,5,-20,11,0
-104,-215,9992,3,-21,10,0
-104,-215,9992,3,-21,10,0
-84,-209,10039,3,-17,10,0
-120,-227,10006,4,-20,12,0
-101,-278,10015,4,-23,13,0
-87,-273,10016,4,-21,10,0
-137,-289,10018,3,-21,9,0
-119,-291,10007,4,-19,10,0
-133,-269,10009,6,-20,10,0
-151,-271,9990,5,-20,10,0
-151,-271,9990,4,-19,10,0
-128,-233,9981,4,-19,10,0
-142,-245,9988,2,-16,9,0
-74,-271,9990,6,-20,12,0
-80,-289,9992,6,-22,13,0
-81,-270,9988,4,-21,13,0
-78,-291,10010,4,-20,11,0
-47,-282,10006,4,-20,12,0
-61,-258,10005,3,-20,10,0
-63,-246,10015,4,-21,9,0
-63,-246,10015,4,-20,10,0
-135,-224,10015,4,-20,10,0
-142,-252,9992,3,-17,9,0
-135,-257,9973,4,-18,9,0
-126,-247,9997,5,-23,12,0
-138,-295,10024,5,-21,12,0
-108,-295,10007,3,-19,12,0
-111,-326,9991,3,-19,13,0
-90,-284,10023,5,-21,10,0
-87,-284,10011,6,-19,10,0
-94,-248,10024,7,-20,10,0
-94,-248,10024,7,-20,10,0
-99,-259,10006,4,-20,8,0
-80,-248,10006,4,-17,10,0
-100,-226,9991,4,-19,12,0
-71,-245,9980,6,-21,11,0
-110,-221,10005,4,-21,12,0
-145,-266,10010,3,-21,12,0
-110,-260,10017,2,-19,12,0
-104,-257,10025,4,-20,12,0
-99,-295,10019,5,-20,12,0
-99,-295,10019,5,-20,12,0
-94,-301,10007,3,-21,10,0
-92,-290,9980,3,-20,10,0
-92,-273,10018,4,-21,9,0
-93,-248,9998,5,-21,12,0
-141,-253,9987,5,-20,10,0
-76,-254,10017,3,-19,11,0
-76,-277,10025,3,-19,11,0
-63,-323,10009,3,-20,10,0
-107,-340,10042,3,-21,10,0
-69,-295,9999,4,-20,10,0
-89,-258,10031,5,-22,9,0
-89,-265,9996,5,-21,10,0
-89,-265,9996,5,-21,10,0
-100,-256,10007,3,-18,10,0
-132,-251,10029,3,-16,9,0
-120,-241,10012,6,-18,11,0
-116,-236,10022,5,-21,11,0
-120,-247,10005,4,-23,11,0
-114,-270,9996,4,-22,10,0
-112,-269,9979,5,-21,10,0
-68,-236,9998,4,-21,10,0
-107,-232,9994,4,-20,10,0
-107,-232,9994,4,-20,10,0
-62,-277,10015,4,-18,11,0
-71,-289,10006,2,-17,10,0
-92,-296,10027,3,-17,14,0
-104,-314,9996,4,-20,12,0
-100,-313,10015,4,-20,11,0
-124,-309,10034,4,-20,10,0
-159,-282,10000,6,-20,11,0
-137,-247,9997,4,-19,10,0
-139,-216,9996,3,-19,9,0
-139,-216,9996,3,-19,9,0
-124,-220,10016,4,-20,9,0
-110,-184,10005,2,-17,10,0
-77,-230,10016,3,-20,12,0
-63,-227,9991,3,-20,11,0
-89,-281,10000,3,-20,9,0
-74,-334,10005,1,-20,10,0
-113,-332,9993,3,-20,10,0
-101,-311,9997,4,-18,11,0
-120,-293,10005,4,-20,10,0
-120,-293,10005,4,-20,12,0
-135,-277,9996,6,-20,10,0
-112,-251,10030,6,-20,10,0
-138,-244,10018,5,-18,14,0
-89,-259,9976,4,-21,14,0
-90,-265,10016,4,-19,12,0
-92,-254,10024,5,-21,9,0
-83,-221,10037,4,-20,10,0
-75,-230,9997,4,-21,9,0
-69,-228,10033,3,-21,8,0
-69,-228,10033,6,-20,9,0
-59,-260,10034,6,-20,9,0
-118,-251,10024,1,-15,10,0
-118,-284,9985,1,-18,10,0
-135,-314,10031,6,-22,12,0
-183,-315,9994,6,-21,11,0
-141,-308,9981,3,-19,14,0
-117,-262,10005,5,-18,12,0
-163,-252,10015,4,-20,10,0
-95,-273,10012,4,-21,10,0
-95,-273,10031,5,-19,11,0
-128,-267,10031,5,-19,11,0
-99,-252,10007,3,-18,9,0
-108,-259,9991,3,-18,9,0
-92,-269,10016,7,-20,11,0
-98,-242,10021,5,-21,10,0
-101,-240,9992,4,-21,7,0
-71,-258,10022,5,-18,10,0
-100,-257,10000,4,-18,11,0
-86,-271,10017,5,-20,9,0
-131,-266,10024,4,-20,9,0
-131,-266,10024,4,-20,9,0
-145,-259,10003,1,-17,10,0
-122,-263,9999,4,-15,10,0
-102,-250,10018,7,-21,10,0
-89,-279,10046,4,-22,11,0
-126,-264,9958,4,-19,12,0
-76,-269,10023,6,-20,12,0
-95,-293,9987,3,-20,11,0
-104,-291,9973,5,-18,11,0
-70,-311,10012,5,-19,10,0
-70,-311,10012,5,-19,10,0
-118,-289,10006,1,-20,7,0
-82,-289,9973,0,-20,10,0
-125,-244,10031,6,-23,12,0
-129,-214,9997,5,-21,11,0
-123,-227,10015,6,-21,13,0
-112,-226,10021,4,-20,12,0
-105,-239,9998,4,-21,10,0
-112,-266,10010,2,-19,11,0
-86,-306,10007,3,-20,10,0
-86,-306,10007,3,-20,10,0
-90,-331,10016,3,-18,9,0
-86,-291,10021,2,-17,10,0
-99,-295,10001,4,-20,10,0
-95,-297,10030,4,-22,9,0
-71,-285,10006,4,-20,9,0
-101,-258,10018,5,-21,10,0
-99,-245,9997,4,-21,12,0
-117,-257,9991,4,-21,10,0
-131,-265,9998,5,-20,11,0
-131,-265,9998,5,-20,11,0
-101,-244,10000,4,-18,10,0
-112,-252,9988,3,-16,9,0
-78,-273,10016,5,-19,10,0
-100,-308,10029,4,-21,9,0
-100,-308,10029,4,-21,9,0
-94,-311,10045,3,-21,9,0
-84,-287,9999,4,-21,11,0
-95,-272,9996,6,-23,12,0
-141,-248,10001,7,-20,11,0
-108,-246,9996,4,-21,10,0
-102,-236,10004,6,-19,11,0
-84,-246,10003,5,-21,11,0
-114,-222,9981,5,-20,10,0
-114,-222,9981,4,-21,10,0
-74,-227,9990,4,-21,10,0
-78,-228,10039,3,-18,10,0
-62,-278,9967,3,-18,14,0
-111,-264,10016,5,-21,13,0
-94,-275,10006,4,-21,12,0
-111,-276,10031,4,-21,11,0
-123,-283,10010,6,-20,12,0
-72,-284,10012,3,-20,10,0
-124,-287,9999,2,-21,11,0
-124,-287,9999,3,-18,11,0
-108,-300,10006,3,-18,11,0
-113,-287,10010,3,-19,10,0
-100,-265,10011,3,-18,10,0
-128,-244,9980,6,-23,12,0
-93,-252,9996,6,-22,10,0
-133,-239,10029,5,-20,10,0
-126,-253,9999,5,-20,10,0
-71,-252,10006,4,-20,10,0
-59,-250,10010,3,-20,8,0
-59,-250,10010,4,-20,8,0
-95,-246,10011,4,-20,8,0
-74,-269,10009,4,-18,9,0
-98,-252,10005,3,-18,10,0
-132,-272,9993,5,-20,11,0
-106,-285,10042,6,-22,11,0
-114,-269,9985,4,-21,12,0
-100,-277,9994,4,-22,11,0
-144,-258,9994,5,-20,11,0
-110,-273,9988,5,-20,11,0
-92,-266,10018,5,-21,10,0
-92,-266,10018,5,-21,10,0
-123,-276,9986,3,-17,9,0
-96,-252,10015,3,-15,11,0
-87,-234,10013,7,-21,12,0
-71,-238,10017,6,-20,11,0
-94,-278,10003,4,-20,10,0
-93,-299,9998,3,-19,9,0
-87,-300,10010,3,-20,10,0
-87,-300,10010,3,-20,10,0
-89,-264,10047,4,-20,10,0
-69,-293,10013,4,-20,12,0
-99,-269,10001,4,-20,10,0
-93,-273,10001,5,-19,11,0
-125,-258,10003,4,-21,10,0
-125,-258,10003,4,-21,10,0
-168,-257,10010,3,-18,9,0
-139,-236,10001,3,-20,11,0
-131,-224,9993,6,-23,10,0
-154,-242,10012,6,-20,12,0
-114,-246,9996,5,-20,11,0
-77,-242,10009,3,-20,11,0
-88,-273,9996,2,-21,11,0
-100,-326,10027,3,-20,12,0
-59,-323,10007,4,-20,10,0
-59,-323,10007,3,-20,9,0
-59,-344,9986,3,-20,9,0
-70,-296,10010,5,-17,9,0
-78,-260,10010,5,-19,10,0
-111,-224,10012,6,-22,9,0
-75,-198,10048,6,-21,9,0
-125,-204,9984,3,-20,10,0
-116,-214,9996,4,-20,11,0
-143,-250,10035,4,-21,11,0
-157,-273,9980,2,-20,12,0
-157,-273,9980,2,-20,12,0
-142,-257,9992,3,-20,8,0
-137,-284,10047,3,-15,8,0
-117,-290,9986,5,-19,10,0
-96,-303,9992,4,-21,9,0
-80,-291,10015,5,-21,9,0
-58,-325,9999,5,-20,11,0
-64,-308,10012,5,-20,10,0
-20,-270,9970,4,-20,9,0
-92,-289,9997,4,-20,10,0
-92,-289,9997,4,-20,10,0
-68,-256,9994,6,-19,10,0
-71,-253,9985,1,-17,10,0
-156,-232,9997,4,-20,10,0
-165,-214,10005,7,-23,10,0
-174,-214,10010,4,-22,11,0
-168,-195,10015,6,-20,11,0
-124,-210,9999,6,-20,10,0
-99,-215,9987,2,-20,9,0
-94,-281,9993,3,-21,12,0
-94,-281,9993,6,-20,10,0
-70,-281,10009,6,-20,10,0
-53,-315,10001,0,-18,10,0
-98,-313,10016,4,-20,12,0
-68,-321,10027,6,-22,12,0
-72,-299,9978,4,-22,9,0
-142,-294,9979,4,-21,9,0
-94,-263,9993,4,-21,10,0
-100,-275,9998,4,-21,10,0
-144,-215,10005,4,-21,10,0
-144,-215,10005,4,-21,12,0
-130,-210,10011,4,-21,12,0
-141,-211,10024,2,-19,12,0
-124,-233,9994,3,-20,14,0
-137,-227,10013,6,-21,13,0
-101,-253,9972,4,-21,11,0
-95,-291,10019,3,-20,10,0
-81,-287,9972,4,-20,10,0
-80,-326,10015,6,-22,10,0
-88,-294,10010,4,-21,10,0
-88,-294,10018,3,-21,10,0
-76,-285,10018,3,-21,10,0
-87,-269,10022,3,-17,9,0
-99,-256,10017,2,-17,9,0
-96,-262,9994,4,-20,12,0
-155,-256,10011,6,-22,12,0
-129,-294,10006,4,-20,12,0
-132,-269,9991,6,-19,12,0
-132,-254,9991,4,-19,11,0
-126,-241,9990,3,-20,9,0
-106,-229,10011,4,-18,10,0
-106,-229,10011,4,-18,10,0
-128,-230,9990,3,-17,8,0
-55,-266,10006,3,-17,7,0
-71,-275,9993,5,-20,10,0
-94,-278,9997,3,-21,10,0
-55,-277,9997,3,-21,10,0
-113,-266,10000,3,-18,11,0
-113,-285,9988,3,-20,10,0
-128,-279,10022,4,-20,10,0
-139,-251,9999,4,-21,10,0
-139,-251,9999,4,-21,10,0
-101,-242,10023,4,-20,9,0
-64,-262,9984,2,-18,7,0
-65,-270,10018,5,-20,10,0
-75,-256,10023,7,-21,11,0
-119,-296,9978,1,-20,11,0
-105,-253,9944,4,-19,11,0
-143,-259,10040,6,-19,11,0
-143,-259,10040,6,-19,11,0
-138,-233,10019,2,-20,9,0
-156,-283,9970,1,-20,9,0
-163,-242,10029,5,-18,9,0
-124,-256,10006,3,-20,10,0
-124,-242,9980,3,-21,10,0
-61,-266,10018,6,-20,10,0
-55,-254,10015,5,-20,11,0
-39,-311,10016,3,-20,11,0
-64,-287,10037,6,-21,10,0
-64,-287,10037,6,-21,10,0
-93,-247,10030,3,-20,9,0
-102,-300,9980,0,-17,9,0
-119,-289,9979,6,-20,10,0
-166,-240,10010,7,-23,10,0
-200,-236,10006,3,-21,11,0
-160,-223,9997,6,-20,11,0
-113,-229,10030,5,-20,10,0
-122,-234,10007,3,-19,11,0
-93,-262,9996,5,-19,12,0
-93,-262,9996,5,-21,10,0
-102,-281,10017,5,-21,10,0
-72,-306,9986,1,-19,8,0
-76,-339,9988,5,-19,12,0
-89,-319,10018,5,-19,12,0
-43,-325,10019,3,-20,10,0
-92,-272,9991,6,-19,10,0
-106,-244,9993,5,-20,9,0
-107,-238,10012,4,-20,10,0
-118,-215,9982,5,-20,12,0
-118,-215,9982,5,-18,11,0
-122,-264,10017,4,-18,11,0
-110,-233,10012,2,-17,12,0
-149,-245,9982,4,-19,14,0
-110,-239,10005,5,-20,10,0
-101,-254,10009,4,-21,12,0
-120,-263,9996,5,-20,12,0
-96,-264,10034,5,-20,10,0
-122,-260,10025,4,-19,9,0
-88,-252,10005,3,-18,10,0
-88,-252,10005,3,-20,10,0
-81,-300,10003,3,-20,10,0
-94,-305,9976,3,-20,9,0
-90,-333,9991,3,-18,9,0
-56,-305,10003,5,-21,11,0
-77,-301,10013,5,-22,11,0
-100,-271,9987,4,-20,10,0
-141,-216,9997,4,-21,9,0
-144,-216,9984,4,-20,10,0
-123,-220,10039,4,-21,12,0
-123,-220,10039,5,-19,10,0
-129,-184,9985,3,-18,9,0
-111,-240,10013,3,-18,9,0
-130,-226,9980,3,-18,11,0
-116,-263,10030,6,-23,13,0
-125,-250,9992,5,-21,12,0
-106,-266,9997,1,-20,12,0
-98,-312,10011,3,-19,12,0
-63,-289,10033,7,-21,10,0
-96,-264,10007,5,-20,7,0
-68,-309,9991,1,-18,10,0
-68,-309,9991,1,-18,10,0
-71,-259,10066,7,-16,10,0
-92,-239,10040,4,-17,10,0
-93,-265,9988,0,-21,12,0
-135,-241,9988,4,-18,10,0
-133,-245,10043,4,-18,10,0
-113,-289,9979,1,-20,10,0
-113,-289,9979,1,-20,10,0
-88,-248,10018,6,-17,10,0
-74,-254,10033,4,-15,8,0
-93,-270,9976,2,-21,10,0
-80,-278,10000,5,-20,10,0
-96,-247,9992,5,-19,10,0
-93,-264,9998,3,-20,10,0
-110,-282,10003,6,-21,10,0
-87,-260,10016,5,-20,10,0
-69,-276,10027,3,-20,10,0
-69,-276,10027,3,-20,10,0
-83,-275,10000,2,-18,11,0
-129,-297,10001,3,-18,11,0
-95,-269,9996,4,-21,13,0
-101,-297,10012,5,-23,13,0
-96,-270,9998,3,-20,11,0
-114,-250,10017,3,-20,9,0
-130,-270,10000,3,-20,7,0
-100,-241,10001,4,-20,10,0
-100,-236,10021,3,-21,10,0
-100,-236,10021,3,-21,10,0
-116,-248,10003,1,-22,9,0
-89,-260,10006,3,-20,10,0
-110,-294,10000,4,-20,10,0
-110,-294,10000,4,-20,10,0
-84,-277,10001,4,-21,10,0
-95,-282,10012,6,-20,10,0
-75,-293,10019,6,-20,9,0
-90,-256,9985,4,-21,12,0
-90,-256,9985,4,-21,12,0
-105,-236,10009,4,-18,9,0
-89,-259,9992,1,-18,11,0
-96,-233,9992,3,-18,12,0
-125,-272,9985,5,-20,10,0
-138,-228,10001,6,-19,10,0
-129,-253,10004,4,-20,9,0
-95,-239,10003,4,-20,9,0
-88,-294,10018,4,-21,10,0
-49,-254,10024,6,-20,10,0
-49,-254,10024,6,-20,10,0
-76,-269,9961,3,-19,10,0
-69,-311,9988,1,-15,8,0
-92,-294,10065,10,-19,12,0
-107,-260,10027,5,-23,10,0
-161,-267,9937,-1,-21,11,0
-144,-251,10031,9,-20,10,0
-160,-183,10042,7,-22,13,0
-130,-228,9940,-1,-21,9,0
-120,-244,9982,11,-19,10,0
-120,-244,9982,7,-20,9,0
-77,-197,10046,-2,-20,11,0
-89,-295,9966,-2,-20,11,0
-78,-299,9979,8,-20,12,0
-78,-256,10021,6,-23,12,0
-94,-314,9943,0,-21,12,0
-118,-301,9997,7,-20,12,0
-124,-281,10042,7,-20,10,0
-117,-284,9987,3,-21,10,0
-86,-259,9968,4,-21,10,0
-101,-227,10025,6,-21,10,0
-101,-227,10025,6,-21,10,0
-94,-293,10013,1,-18,10,0
-96,-271,10011,6,-20,11,0
-96,-242,10003,7,-22,11,0
-126,-248,9957,2,-23,11,0
-120,-257,10005,4,-20,10,0
-104,-232,10034,5,-20,10,0
-124,-221,10004,4,-18,10,0
-141,-250,10012,5,-20,12,0
-141,-250,10033,6,-20,10,0
-110,-228,10033,6,-20,10,0
-123,-273,9978,3,-20,9,0
-80,-283,10009,3,-20,10,0
-101,-299,10012,4,-23,12,0
-104,-339,10010,5,-21,10,0
-107,-314,9993,6,-20,9,0
-114,-289,9996,4,-21,9,0
-101,-233,9988,6,-22,9,0
-74,-209,10009,6,-19,8,0
-124,-230,9999,5,-20,9,0
-124,-230,9999,5,-20,9,0
-88,-235,10005,2,-16,9,0
-129,-229,9996,4,-16,10,0
-130,-269,10013,5,-20,11,0
-118,-278,9973,4,-22,12,0
-98,-293,10022,4,-22,10,0
-77,-315,9991,6,-21,10,0
-52,-296,10010,6,-20,11,0
-84,-259,10019,6,-20,11,0
-94,-250,9985,4,-21,9,0
-94,-250,9986,4,-22,10,0
-88,-244,9986,4,-22,10,0
-98,-262,9984,4,-20,9,0
-155,-229,9991,6,-21,13,0
-124,-301,10012,5,-22,10,0
-116,-239,10019,5,-20,10,0
-94,-229,10052,5,-20,10,0
-107,-265,10025,3,-18,10,0
-132,-283,9978,3,-20,8,0
-94,-275,9991,7,-19,10,0
-94,-275,9991,7,-19,10,0
-111,-283,10018,4,-20,9,0
-114,-259,9985,0,-18,8,0
-96,-242,10012,7,-20,9,0
-105,-300,9969,1,-21,10,0
-105,-300,9969,1,-21,10,0
-114,-283,9968,4,-20,10,0
-114,-283,9968,4,-20,10,0
-141,-227,10022,6,-21,10,0
-122,-257,9984,0,-19,7,0
-124,-262,9994,6,-22,12,0
-126,-245,10028,7,-23,13,0
-96,-233,9993,2,-21,10,0
-92,-266,9975,5,-20,10,0
-108,-284,10029,7,-21,12,0
-87,-282,10010,1,-19,12,0
-78,-263,9994,3,-20,10,0
-78,-263,9994,3,-20,10,0
-123,-244,10030,6,-20,9,0
-135,-253,10003,4,-18,9,0
-94,-248,9981,4,-20,11,0
-96,-272,10027,7,-21,12,0
-80,-252,10001,4,-21,13,0
-92,-252,10003,6,-21,12,0
-111,-246,10007,6,-20,12,0
-100,-228,9996,4,-22,10,0
-116,-251,10019,6,-21,10,0
-93,-266,10027,6,-21,10,0
-93,-266,10027,6,-21,10,0
-94,-265,9992,1,-19,9,0
-78,-301,10005,4,-20,9,0
-66,-291,10019,5,-22,9,0
-76,-315,10023,4,-22,11,0
-98,-296,10010,4,-20,10,0
-114,-267,10004,6,-19,10,0
-128,-242,10023,3,-18,9,0
-135,-227,9974,4,-21,11,0
-135,-227,9974,6,-20,9,0
-162,-210,10018,6,-20,9,0
-142,-218,10004,3,-17,12,0
-122,-223,9993,4,-19,11,0
-84,-260,10039,6,-23,10,0
-72,-302,9957,3,-19,10,0
-55,-343,9979,4,-20,12,0
-90,-300,10039,5,-20,11,0
-100,-300,10036,3,-20,9,0
-105,-297,9968,3,-19,10,0
-105,-297,9968,7,-20,11,0
-86,-258,10004,7,-20,11,0
-89,-216,10017,6,-18,10,0
-106,-212,9984,2,-20,14,0
-114,-227,9924,1,-22,12,0
-110,-227,10009,10,-22,12,0
-106,-220,10071,10,-21,10,0
-138,-288,9943,-4,-21,11,0
-106,-338,9925,0,-21,12,0
-111,-300,10080,15,-21,10,0
-86,-266,9982,0,-18,10,0
-86,-266,9982,0,-18,9,0
-66,-294,9934,-1,-20,9,0
-59,-227,10054,13,-20,10,0
-74,-190,10021,6,-21,12,0
-93,-256,9948,-1,-22,12,0
-106,-279,10076,10,-18,12,0
-147,-257,10054,2,-19,12,0
-173,-334,9933,-5,-21,9,0
-149,-361,9999,8,-21,9,0
-136,-293,10013,8,-20,7,0
-136,-293,10013,8,-20,7,0
-156,-275,9942,1,-18,6,0
-89,-228,9994,7,-18,8,0
-81,-198,10052,7,-21,10,0
-64,-197,9979,2,-23,12,0
-27,-239,10021,4,-20,11,0
-33,-212,10021,4,-18,10,0
-77,-313,10007,1,-19,10,0
-77,-344,10013,3,-20,10,0
-114,-334,10028,5,-20,10,0
-114,-334,10028,5,-20,10,0
-156,-315,10017,3,-18,7,0
-137,-291,9994,4,-15,6,0
-145,-253,10031,9,-20,9,0
-172,-191,10000,9,-21,10,0
-136,-191,9976,5,-20,10,0
-118,-171,10011,3,-18,11,0
-92,-220,10011,3,-19,12,0
-72,-279,10003,1,-18,13,0
-53,-370,10015,1,-19,14,0
-53,-370,10015,1,-19,14,0
-80,-305,10015,3,-19,10,0
-55,-348,10000,4,-18,9,0
-106,-313,10005,4,-21,9,0
-64,-252,10036,7,-21,10,0
-105,-171,10018,5,-20,7,0
-110,-202,9996,3,-20,9,0
-129,-192,10016,6,-21,10,0
-133,-236,10011,3,-20,14,0
-136,-276,10013,0,-19,14,0
-136,-276,10013,1,-18,13,0
-93,-324,9987,1,-18,13,0
-87,-356,10023,1,-18,11,0
-98,-372,10013,4,-21,10,0
-77,-313,9974,7,-21,9,0
-133,-264,10012,7,-20,9,0
-72,-232,9988,5,-20,8,0
-92,-200,10000,6,-21,9,0
-108,-191,10059,7,-20,9,0
-120,-154,9969,0,-19,10,0
-120,-154,9969,0,-19,10,0
-122,-235,9955,1,-18,7,0
-129,-228,10066,10,-18,9,0
-96,-251,9998,1,-20,13,0
-92,-326,9930,0,-23,14,0
-84,-309,10060,14,-21,9,0
-72,-251,10037,5,-20,10,0
-72,-325,9907,-7,-20,10,0
-55,-332,10041,10,-20,10,0
-104,-241,10068,9,-20,12,0
-104,-241,10068,-4,-21,10,0
-101,-251,9925,-4,-21,10,0
-111,-300,9994,7,-17,10,0
-120,-218,10072,9,-17,12,0
-151,-256,9943,-3,-20,13,0
-114,-258,10011,7,-21,11,0
-86,-205,10080,9,-20,10,0
-87,-235,9964,-3,-19,10,0
-107,-232,9981,4,-19,10,0
-68,-215,10029,8,-20,10,0
-68,-215,10029,1,-20,10,0
-76,-224,10001,1,-20,10,0
-70,-282,9986,4,-17,10,0
-61,-281,10027,6,-17,12,0
-89,-303,10017,4,-22,12,0
-90,-302,10051,6,-22,11,0
-145,-324,10039,3,-20,11,0
-149,-343,10011,4,-20,9,0
-151,-312,9987,5,-20,7,0
-154,-285,9984,1,-20,7,0
-135,-270,9992,6,-20,9,0
-135,-270,9992,6,-20,9,0
-117,-220,10042,4,-19,9,0
-70,-206,9991,3,-19,9,0
-50,-181,10031,8,-23,12,0
-69,-189,10029,5,-20,12,0
-33,-222,9957,1,-18,12,0
-71,-266,10015,4,-20,13,0
-55,-284,10059,6,-20,12,0
-76,-296,9985,1,-20,10,0
-119,-318,9994,4,-21,9,0
-119,-318,9994,4,-21,9,0
-118,-300,10009,5,-20,9,0
-143,-297,9980,0,-19,9,0
-159,-282,9968,4,-20,10,0
-162,-260,10001,8,-21,11,0
-149,-214,9996,3,-21,12,0
-128,-247,10001,2,-18,11,0
-110,-263,10045,6,-20,10,0
-87,-248,10016,3,-19,12,0
-34,-278,9987,3,-21,12,0
-34,-278,9987,3,-21,12,0
-58,-245,9996,3,-17,9,0
-57,-253,9993,2,-17,9,0
-46,-271,10037,7,-21,11,0
-99,-232,10033,7,-21,10,0
-93,-276,9954,-2,-21,9,0
-116,-300,10010,6,-21,7,0
-118,-272,10100,9,-18,9,0
-160,-317,9968,-5,-18,10,0
-130,-356,9967,1,-18,10,0
-130,-356,9967,1,-18,10,0
-117,-273,10052,14,-18,11,0
-133,-266,9993,-2,-14,12,0
-141,-315,9918,0,-19,12,0
-93,-236,10066,16,-19,10,0
-45,-200,10043,4,-18,10,0
-61,-275,9908,-4,-21,9,0
-31,-242,10060,12,-21,10,0
-58,-195,10057,4,-18,10,0
-53,-297,9951,-4,-20,11,0
-53,-297,9951,-4,-20,11,0
-58,-284,10003,9,-18,9,0
-89,-258,10074,2,-20,9,0
-118,-332,9940,-3,-21,12,0
-110,-287,9985,9,-22,12,0
-138,-270,10051,5,-20,12,0
-139,-314,9967,0,-20,10,0
-133,-265,9990,6,-19,11,0
-111,-223,10059,6,-19,10,0
-128,-247,10010,0,-19,9,0
-128,-247,10010,0,-19,9,0
-83,-250,9980,3,-21,9,0
-77,-226,10001,2,-21,9,0
-87,-233,10019,3,-21,12,0
-61,-270,10000,3,-21,10,0
-66,-289,10011,3,-22,10,0
-58,-248,10025,4,-18,10,0
-105,-279,10022,2,-17,10,0
-101,-285,9964,1,-20,10,0
-125,-233,9992,4,-19,10,0
-125,-233,9992,4,-18,11,0
-138,-241,10016,3,-18,11,0
-153,-284,10005,1,-15,12,0
-148,-259,10003,6,-17,12,0
-124,-266,9994,5,-20,11,0
-78,-236,9964,0,-20,12,0
-77,-281,10005,4,-20,11,0
-83,-267,10043,6,-19,9,0
-84,-273,9992,1,-20,10,0
-72,-251,9969,3,-21,9,0
-72,-251,9969,6,-21,10,0
-80,-276,10030,6,-21,10,0
-72,-240,10010,1,-16,8,0
-82,-265,10004,1,-18,10,0
-66,-240,10051,6,-22,9,0
-100,-239,10019,0,-22,9,0
-119,-262,9973,-3,-20,9,0
-88,-287,10012,1,-20,9,0
-132,-260,9999,2,-19,9,0
-90,-293,9993,-1,-19,9,0
-90,-293,9993,0,-20,9,0
-161,-317,10004,0,-20,9,0
-93,-300,10016,3,-16,9,0
-128,-284,10028,4,-19,9,0
-95,-259,10022,7,-20,9,0
-82,-262,10006,3,-21,10,0
-101,-303,9963,3,-21,12,0
-101,-303,9963,3,-21,12,0
-114,-269,10004,2,-18,10,0
-107,-283,10023,3,-19,10,0
-114,-275,10018,2,-21,10,0
-126,-272,9972,5,-23,10,0
-92,-283,9986,4,-18,10,0
-114,-306,10013,3,-18,10,0
-122,-258,9979,5,-21,13,0
-102,-263,9986,3,-20,10,0
-110,-273,10018,4,-21,10,0
-110,-273,10018,4,-21,10,0
-95,-248,10015,2,-20,10,0
-120,-262,10011,3,-19,12,0
-107,-281,10006,7,-23,10,0
-96,-258,10031,5,-23,10,0
-84,-269,9963,4,-20,12,0
-71,-238,10016,4,-19,10,0
-125,-266,10010,4,-19,10,0
-135,-273,9997,3,-19,9,0
-131,-275,9999,6,-19,10,0
-131,-275,9999,6,-19,10,0
-80,-284,10025,4,-18,9,0
-114,-290,9992,2,-16,10,0
-100,-293,9998,6,-21,10,0
-102,-269,10010,6,-22,10,0
-107,-276,9993,3,-20,11,0
-102,-265,9993,6,-21,10,0
-88,-263,10024,8,-20,9,0
-96,-273,9973,4,-20,10,0
-105,-271,10007,7,-20,10,0
-105,-271,10007,7,-20,10,0
-106,-263,10021,7,-20,10,0
-111,-267,9987,4,-16,10,0
-129,-262,10016,7,-20,15,0
-89,-277,10011,10,-21,13,0
-117,-279,9990,6,-20,12,0
-118,-293,9982,7,-20,10,0
-92,-284,10012,10,-21,11,0
-113,-282,9961,6,-20,11,0
-102,-256,10006,5,-21,13,0
-102,-256,10006,5,-21,13,0
-107,-240,9996,7,-20,11,0
-101,-248,10017,6,-18,10,0
-114,-271,10009,5,-20,13,0
-94,-318,10021,7,-23,14,0
-126,-287,10023,8,-20,13,0
-110,-277,9980,6,-20,13,0
-88,-271,10006,7,-19,11,0
-90,-278,10021,7,-18,12,0
-89,-303,9979,6,-18,11,0
-89,-303,9979,6,-18,11,0
-83,-272,9975,5,-20,11,0
-114,-278,10017,6,-19,10,0
-130,-273,10005,7,-20,14,0
-110,-253,10010,9,-23,13,0
-92,-248,10024,8,-23,12,0
-88,-217,10049,7,-20,12,0
-117,-227,10025,6,-20,12,0
-129,-234,9980,6,-20,14,0
-119,-234,10015,5,-21,12,0
-119,-234,10015,4,-21,11,0
-84,-244,10030,4,-21,11,0
-80,-241,9999,4,-20,9,0
-116,-282,9993,5,-20,12,0
-107,-262,9993,7,-23,11,0
-104,-257,10016,4,-21,10,0
-104,-245,9996,4,-19,11,0
-112,-279,9996,7,-20,10,0
-92,-285,9996,6,-19,10,0
-106,-301,10006,3,-19,12,0
-106,-301,10006,4,-18,9,0
-110,-290,9980,4,-18,9,0
-104,-263,10036,4,-17,9,0
-118,-263,10006,4,-18,11,0
-86,-200,9998,6,-22,12,0
-72,-221,10000,7,-21,9,0
-64,-235,10003,6,-21,9,0
-94,-275,9986,3,-21,10,0
-78,-273,10006,6,-20,11,0
-82,-281,9999,4,-18,12,0
-82,-281,10004,3,-18,8,0
-145,-332,10004,3,-18,8,0
-119,-340,10001,4,-17,9,0
-107,-309,9999,4,-17,11,0
-111,-285,10034,6,-21,11,0
-118,-272,10019,5,-22,10,0
-143,-250,10016,6,-21,10,0
-105,-248,10022,4,-20,10,0
-105,-250,10025,4,-20,11,0
-102,-252,10017,3,-20,10,0
-108,-244,9984,4,-18,11,0
-108,-244,9984,4,-18,11,0
-94,-269,10017,3,-18,10,0
-116,-302,9994,2,-18,10,0
-81,-290,9982,6,-22,10,0
-106,-271,10024,6,-21,10,0
-98,-253,10004,4,-20,9,0
-110,-217,10005,5,-20,9,0
-128,-239,9996,4,-20,10,0
-114,-241,10003,3,-20,11,0
-129,-250,10054,4,-20,10,0
-129,-250,10054,4,-20,10,0
-117,-251,10007,2,-19,10,0
-111,-307,9974,5,-20,9,0
-69,-276,10001,6,-20,12,0
-94,-242,10006,6,-20,11,0
-102,-262,10011,3,-19,10,0
-102,-262,10011,3,-19,10,0
-125,-259,10006,3,-16,9,0
-113,-299,10003,2,-15,10,0
-116,-252,10007,5,-18,14,0
-107,-265,10001,5,-20,12,0
-133,-281,9980,5,-19,11,0
-148,-258,10011,5,-20,11,0
-122,-283,9996,5,-18,10,0
-113,-248,10011,7,-20,12,0
-90,-233,9994,6,-20,12,0
-90,-233,9994,6,-20,12,0
-86,-222,10054,5,-18,10,0
-102,-251,10009,2,-14,12,0
-111,-269,9996,4,-19,12,0
-102,-273,10019,4,-21,12,0
-94,-277,9988,4,-21,10,0
-137,-264,9997,5,-20,10,0
-111,-234,10031,3,-20,12,0
-122,-250,10004,4,-21,10,0
-101,-254,9990,4,-21,10,0
-101,-254,9990,4,-21,10,0
-102,-272,10004,3,-20,9,0
-114,-275,10012,3,-19,9,0
-118,-279,9999,6,-20,13,0
-114,-277,10001,6,-22,10,0
-81,-272,10000,5,-20,11,0
-117,-277,10007,4,-20,11,0
-64,-270,9979,3,-20,11,0
-149,-263,10011,4,-20,11,0
-96,-223,10016,6,-20,10,0
-96,-223,10016,6,-20,9,0
-89,-254,9996,6,-20,9,0
-93,-252,10003,1,-18,10,0
-69,-282,10029,4,-21,12,0
-130,-282,10013,5,-22,11,0
-71,-289,9994,5,-21,11,0
-70,-285,9997,4,-20,12,0
-120,-314,9996,4,-18,10,0
-130,-260,10000,4,-19,9,0
-130,-256,10009,5,-20,10,0
-130,-256,10009,4,-20,9,0
-129,-257,10028,4,-20,9,0
-151,-252,10034,4,-18,10,0
-111,-245,10005,5,-18,11,0
-102,-256,9981,5,-18,10,0
-101,-236,9993,4,-18,10,0
-106,-250,9987,4,-20,11,0
-62,-256,9992,5,-20,11,0
-88,-247,10025,4,-18,10,0
-116,-272,10033,5,-20,9,0
-116,-272,10033,4,-21,10,0
-96,-282,10031,4,-21,10,0
-102,-326,10012,1,-16,9,0
-125,-283,10024,2,-18,12,0
-88,-314,9998,4,-20,13,0
-114,-299,9991,4,-21,12,0
-104,-306,9985,4,-21,12,0
-104,-263,10000,5,-21,10,0
-69,-256,9990,4,-20,9,0
-104,-258,10003,4,-20,7,0
-102,-258,10000,4,-20,9,0
-102,-218,10000,4,-20,9,0
-106,-234,9996,3,-19,11,0
-123,-241,10005,3,-18,12,0
-111,-238,10033,6,-21,10,0
-128,-250,9962,5,-21,11,0
-102,-300,10005,4,-20,10,0
-133,-281,10019,5,-21,12,0
-124,-284,9999,4,-21,11,0
-101,-276,9999,4,-20,10,0
-136,-279,9981,4,-20,11,0
-117,-250,10023,4,-20,10,0
-117,-250,10023,4,-20,10,0
-141,-260,9998,4,-19,11,0
-111,-254,9996,4,-20,13,0
-100,-241,10005,3,-20,13,0
-99,-281,9999,4,-21,12,0
-96,-246,10033,6,-20,11,0
-105,-269,10017,4,-19,11,0
-84,-275,10011,4,-19,10,0
-84,-275,10011,4,-19,10,0
-83,-288,10001,3,-19,9,0
-78,-272,9980,3,-19,10,0
-72,-244,9992,6,-23,11,0
-132,-254,9991,6,-22,9,0
-113,-227,9991,5,-21,10,0
-105,-227,10005,3,-20,11,0
-75,-254,9996,5,-20,12,0
-100,-248,9998,3,-20,12,0
-119,-248,10016,3,-20,11,0
-119,-248,10016,3,-20,11,0
-108,-276,10015,1,-17,8,0
-81,-287,9999,2,-15,10,0
-83,-276,9998,5,-20,12,0
-110,-250,10001,5,-21,12,0
-132,-277,9991,4,-19,10,0
-123,-256,10027,4,-21,10,0
-150,-247,9990,4,-20,10,0
-124,-234,10015,4,-20,10,0
-96,-269,9987,3,-19,10,0
-96,-269,9987,3,-19,10,0
-94,-263,9996,3,-18,10,0
-72,-295,9988,3,-17,9,0
-105,-295,10000,4,-18,11,0
-71,-295,10023,4,-20,10,0
-101,-264,10028,4,-22,10,0
-70,-228,10036,4,-20,10,0
-125,-223,10009,4,-19,10,0
-125,-250,10015,5,-19,9,0
-93,-234,10023,4,-20,10,0
-93,-234,10023,4,-20,10,0
-116,-232,9978,4,-20,10,0
-119,-245,9998,4,-18,10,0
-66,-278,10009,4,-20,14,0
-52,-287,10005,5,-22,12,0
-70,-290,9999,4,-20,10,0
-77,-313,10010,6,-21,10,0
-70,-306,10025,4,-21,9,0
-81,-270,10018,4,-21,10,0
-92,-250,10013,4,-18,9,0
-92,-250,10013,3,-21,10,0
-138,-240,10006,3,-21,10,0
-113,-229,9987,3,-20,8,0
-106,-262,9990,5,-21,9,0
-137,-271,10005,6,-23,12,0
-105,-239,9980,4,-21,12,0
-108,-271,10012,4,-20,10,0
-93,-285,9999,3,-19,10,0
-72,-283,9992,3,-20,10,0
-102,-266,10009,6,-20,9,0
-102,-266,10009,4,-18,9,0
-118,-245,9985,4,-18,9,0
-98,-276,10046,4,-17,10,0
-95,-230,9998,5,-20,12,0
-87,-246,10011,4,-23,12,0
-120,-272,10028,4,-20,12,0
-81,-260,10021,3,-20,12,0
-101,-278,10015,4,-20,12,0
-126,-244,10005,4,-20,11,0
-107,-258,10024,3,-19,10,0
-107,-258,10015,3,-19,10,0
-100,-294,10015,3,-19,10,0
-107,-297,10001,2,-17,10,0
-81,-277,9972,4,-18,11,0
-137,-297,10000,7,-21,10,0
-113,-263,10005,6,-21,12,0
-94,-241,9963,4,-20,11,0
-126,-279,10040,4,-20,10,0
-96,-241,10035,3,-20,12,0
-100,-275,9997,4,-20,12,0
-101,-281,10064,4,-18,10,0
-101,-281,10064,4,-18,10,0
-120,-272,10013,3,-17,11,0
-117,-269,9996,3,-17,12,0
-110,-265,10015,6,-22,11,0
-114,-259,10035,6,-20,10,0
-105,-250,10003,6,-20,11,0
-119,-236,9975,6,-20,12,0
-110,-267,10022,4,-20,11,0
-82,-272,9988,4,-20,9,0
-92,-276,10009,4,-21,10,0
-92,-276,10009,4,-21,10,0
-110,-272,10037,1,-21,9,0
-68,-272,9999,1,-20,9,0
-96,-290,10010,6,-21,11,0
-88,-287,9994,6,-20,10,0
-90,-257,9998,3,-21,11,0
-83,-270,9997,4,-22,10,0
-136,-260,9991,4,-21,10,0
-116,-260,9990,3,-21,10,0
-93,-260,10017,4,-21,10,0
-93,-260,10017,4,-21,10,0
-105,-247,10005,2,-19,10,0
-126,-245,10009,3,-20,9,0
-107,-267,10006,4,-21,10,0
-93,-269,10005,4,-21,10,0
-108,-264,9986,4,-21,9,0
-120,-276,9997,4,-20,10,0
-101,-263,9982,6,-20,11,0
-113,-283,9993,4,-18,9,0
-99,-271,10015,4,-21,10,0
-99,-271,10015,4,-21,10,0
-96,-257,10024,3,-18,9,0
-98,-250,10012,4,-16,10,0
-130,-263,10012,6,-19,12,0
-96,-256,9996,4,-22,14,0
-74,-254,10012,4,-20,12,0
-148,-267,10003,4,-20,12,0
-108,-266,9993,3,-18,11,0
-130,-282,10017,3,-20,10,0
-90,-301,10016,3,-18,10,0
-90,-301,10016,3,-18,10,0
-114,-267,9998,4,-17,10,0
-114,-278,9994,4,-15,8,0
-100,-306,10005,6,-20,13,0
-80,-273,10023,4,-20,12,0
-111,-244,9966,4,-20,10,0
-80,-245,9980,4,-18,10,0
-126,-267,10018,3,-19,12,0
-96,-284,10025,3,-18,12,0
-81,-245,10005,4,-18,10,0
-81,-245,10005,4,-18,9,0
-106,-269,9993,4,-20,9,0
-110,-266,9973,3,-17,9,0
-83,-283,10001,5,-19,9,0
-98,-294,10023,4,-23,10,0
-100,-250,9999,6,-21,10,0
-95,-260,9996,6,-18,10,0
-111,-241,9999,6,-19,9,0
-110,-273,9994,5,-20,10,0
-51,-265,9976,3,-18,11,0
-51,-265,9976,5,-23,10,0
-144,-272,10018,5,-23,10,0
-114,-301,9987,3,-21,9,0
-94,-262,10016,4,-20,12,0
-98,-247,10010,4,-20,12,0
-125,-263,9982,4,-21,12,0
-99,-246,9991,4,-20,10,0
-110,-262,10048,4,-20,10,0
-119,-244,10010,4,-19,11,0
-98,-267,9972,5,-19,12,0
-98,-267,9972,4,-18,10,0
-83,-263,10021,4,-18,10,0
-102,-272,9975,3,-17,9,0
-114,-259,10031,5,-19,10,0
-120,-270,9994,5,-22,10,0
-95,-273,9982,4,-22,10,0
-113,-238,10041,6,-21,12,0
-124,-230,9987,3,-20,11,0
-106,-258,9990,3,-21,10,0
-108,-253,9984,4,-21,10,0
-108,-253,10035,4,-20,10,0
-94,-250,10035,4,-20,10,0
-84,-275,9987,2,-16,8,0
-99,-288,10009,4,-18,9,0
-94,-262,10018,6,-20,11,0
-101,-285,10018,5,-20,11,0
-131,-275,10007,4,-20,11,0
-95,-247,10010,6,-21,9,0
-104,-242,10004,3,-21,10,0
-166,-252,10018,5,-21,9,0
-105,-253,10013,4,-20,10,0
-105,-253,10013,4,-20,10,0
-116,-270,9966,3,-18,10,0
-104,-266,9990,4,-17,10,0
-126,-248,10001,5,-21,11,0
-100,-263,10037,7,-23,12,0
-84,-264,9984,5,-21,12,0
-113,-241,10034,5,-19,9,0
-90,-272,9988,5,-21,9,0
-63,-266,9978,5,-20,9,0
-95,-253,10016,5,-20,10,0
-95,-253,10016,5,-20,10,0
-126,-258,10017,2,-19,9,0
-86,-235,10018,3,-18,9,0
-135,-239,9991,4,-21,12,0
-124,-264,9991,3,-22,12,0
-126,-262,9999,3,-20,10,0
-104,-244,10019,4,-21,11,0
-81,-238,9997,4,-21,11,0
-58,-250,10013,4,-21,11,0
-84,-256,10006,3,-20,9,0
-84,-256,10006,3,-20,9,0
-117,-245,10013,1,-20,10,0
-96,-264,10006,3,-17,10,0
-124,-291,9990,4,-20,12,0
-102,-288,9990,6,-21,12,0
-114,-276,10004,6,-21,11,0
-128,-273,10010,4,-19,11,0
-98,-265,9997,4,-20,12,0
-114,-266,10012,4,-20,12,0
-124,-252,10000,3,-20,11,0
-124,-252,10000,3,-20,11,0
-108,-262,10009,4,-18,10,0
-106,-227,10012,3,-17,12,0
-68,-253,9992,3,-20,10,0
-105,-259,9988,4,-22,11,0
-86,-276,10018,4,-20,10,0
-74,-257,10011,3,-20,10,0
-56,-236,10024,4,-20,11,0
-98,-271,10009,3,-21,9,0
-77,-273,10027,4,-19,10,0
-77,-273,10027,4,-19,10,0
-110,-269,10005,4,-19,9,0
-108,-281,9997,4,-14,10,0
-114,-287,10013,6,-17,11,0
-161,-296,9987,7,-22,11,0
-123,-279,10016,6,-22,10,0
-137,-276,10003,4,-19,9,0
-108,-287,9994,4,-21,11,0
-106,-264,10009,3,-21,9,0
-104,-260,9997,4,-20,9,0
-104,-260,9997,4,-20,10,0
-77,-242,10023,4,-20,10,0
-113,-238,9999,3,-18,10,0
-122,-256,10010,4,-19,12,0
-77,-226,10011,5,-20,10,0
-129,-277,10010,6,-21,10,0
-100,-266,10009,5,-20,11,0
-95,-269,10022,4,-19,10,0
-84,-272,10015,3,-18,12,0
-122,-267,10015,3,-20,11,0
-122,-267,10015,4,-19,12,0
-95,-245,10012,4,-19,12,0
-117,-270,9987,3,-20,10,0
-124,-245,10036,4,-22,12,0
-75,-246,9999,4,-22,12,0
-96,-264,10000,4,-22,10,0
-130,-271,9976,4,-21,11,0
-136,-248,10010,3,-21,10,0
-90,-258,10031,5,-18,9,0
-106,-289,9979,5,-20,10,0
-106,-289,9979,3,-18,9,0
-124,-234,10017,3,-18,9,0
-96,-275,10023,4,-16,9,0
-104,-279,10016,3,-18,12,0
-107,-254,10011,4,-21,12,0
-89,-263,10013,4,-21,11,0
-116,-258,10011,4,-22,10,0
-104,-227,10012,3,-21,11,0
-118,-244,10025,3,-21,10,0
-70,-252,9970,2,-19,8,0
-107,-257,10012,5,-19,10,0
-107,-257,10012,5,-19,10,0
-62,-247,9972,4,-20,11,0
-94,-264,10028,4,-20,11,0
-71,-276,9996,4,-21,11,0
-107,-291,10007,6,-21,9,0
-129,-278,9994,5,-21,8,0
-129,-278,9994,5,-21,8,0
-71,-248,10009,4,-18,9,0
-125,-241,9978,3,-18,9,0
-68,-266,10039,8,-21,9,0
-113,-264,10005,5,-21,10,0
-83,-236,9979,4,-20,12,0
-101,-266,10025,6,-21,10,0
-123,-258,10028,3,-21,10,0
-118,-257,9986,3,-21,12,0
-107,-266,10034,5,-20,11,0
-107,-266,10034,5,-20,11,0
-120,-248,10034,1,-20,10,0
-113,-278,10015,1,-21,10,0
-119,-256,10013,4,-21,11,0
-114,-266,10012,3,-21,12,0
-84,-230,10016,5,-20,10,0
-86,-251,10025,5,-20,10,0
-105,-256,9992,4,-19,10,0
-95,-275,10019,4,-20,11,0
-71,-251,10001,4,-20,11,0
-71,-251,10001,4,-20,11,0
-90,-240,10017,3,-20,9,0
-126,-264,10030,3,-20,10,0
-70,-259,10012,4,-21,11,0
-120,-258,9980,6,-23,9,0
-118,-251,10018,7,-21,11,0
-124,-246,10025,4,-20,10,0
-98,-277,10015,4,-21,11,0
-117,-287,10001,3,-20,10,0
-92,-302,9987,4,-20,12,0
-92,-302,9987,4,-20,12,0
-110,-299,9996,3,-17,11,0
-75,-272,10011,4,-16,9,0
-129,-250,9993,4,-18,10,0
-102,-240,10001,4,-20,10,0
-118,-271,10019,4,-20,11,0
-106,-266,10031,4,-19,12,0
-104,-238,10001,3,-20,12,0
-113,-222,10025,4,-20,12,0
-101,-270,10025,5,-20,10,0
-101,-270,10025,5,-20,10,0
-119,-275,9992,3,-18,10,0
-101,-252,10030,4,-15,8,0
-80,-232,9986,6,-18,10,0
-99,-267,10004,6,-23,10,0
-95,-272,10030,4,-21,10,0
-110,-256,9996,5,-19,10,0
-99,-265,9998,4,-20,12,0
-114,-278,10045,4,-20,10,0
-98,-272,9997,3,-20,10,0
-98,-272,9997,4,-19,10,0
-92,-253,9985,4,-19,10,0
-76,-260,9986,3,-18,9,0
-139,-284,10005,5,-19,11,0
-81,-284,10022,6,-21,10,0
-116,-269,9988,4,-23,11,0
-132,-260,9994,4,-22,10,0
-114,-265,9994,5,-21,11,0
-114,-283,10001,5,-21,10,0
-100,-275,10018,4,-20,10,0
-100,-275,10018,4,-21,11,0
-117,-279,9991,4,-21,11,0
-86,-259,10045,1,-21,9,0
-111,-263,9979,4,-20,10,0
-83,-238,10035,4,-20,11,0
-101,-238,10037,4,-21,10,0
-120,-276,10019,5,-20,10,0
-104,-253,10003,4,-20,12,0
-112,-251,10003,2,-20,9,0
-93,-263,9993,3,-21,9,0
-93,-263,9999,4,-20,9,0
-120,-246,9999,4,-20,9,0
-102,-290,10023,3,-17,9,0
-99,-269,10024,4,-15,10,0
-94,-260,9996,4,-22,10,0
-125,-267,10000,3,-22,9,0
-105,-266,9979,3,-20,10,0
-93,-278,9999,3,-21,9,0
-68,-264,9987,4,-20,10,0
-94,-277,10007,4,-20,10,0
-119,-269,10003,6,-20,11,0
-119,-269,10003,6,-20,11,0
-107,-264,10012,4,-18,9,0
-111,-240,9991,3,-17,10,0
-102,-232,10006,6,-22,14,0
-120,-262,10013,4,-21,13,0
-102,-247,10018,3,-21,11,0
-114,-277,9994,3,-20,11,0
-96,-279,9992,4,-20,10,0
-88,-267,10023,4,-21,10,0
-80,-253,10019,4,-21,9,0
-80,-253,10019,4,-21,9,0
-75,-244,10018,3,-20,9,0
-80,-257,10024,4,-18,8,0
-114,-259,10027,6,-19,10,0
-126,-239,10011,5,-21,10,0
-132,-230,10012,6,-21,12,0
-131,-283,9992,4,-21,10,0
-101,-234,10003,4,-21,11,0
-112,-275,9976,4,-19,10,0
-119,-272,10023,4,-20,9,0
-119,-272,10023,4,-20,9,0
-128,-273,10030,2,-20,7,0
-110,-272,9987,2,-20,9,0
-107,-253,10015,5,-18,10,0
-104,-236,9982,4,-20,11,0
-70,-266,9999,3,-21,11,0
-90,-248,10028,3,-20,9,0
-96,-247,9982,3,-18,10,0
-123,-257,10015,4,-20,10,0
-137,-247,10031,6,-20,12,0
-137,-247,10031,6,-20,12,0
-101,-282,10016,4,-18,11,0
-100,-271,10021,3,-18,10,0
-125,-273,9961,4,-20,11,0
-99,-285,9991,4,-21,12,0
-102,-260,10000,3,-20,12,0
-84,-266,10006,4,-19,11,0
-75,-264,10022,5,-19,10,0
-119,-283,10012,4,-20,9,0
-122,-266,10019,4,-20,10,0
-122,-266,10019,4,-20,10,0
-119,-254,9994,3,-18,9,0
-147,-264,9998,3,-16,8,0
-145,-259,10007,5,-19,10,0
-118,-275,10001,6,-21,10,0
-100,-269,9973,4,-21,10,0
-125,-284,10003,4,-20,10,0
-92,-289,10011,5,-21,9,0
-105,-282,10010,4,-20,12,0
-110,-258,10033,4,-21,11,0
-110,-258,10033,4,-19,11,0
-104,-266,10015,4,-19,11,0
-87,-257,10018,3,-15,12,0
-100,-269,10000,5,-18,11,0
-81,-251,10004,5,-18,10,0
-101,-262,10016,5,-20,11,0
-104,-233,10013,4,-19,11,0
-77,-250,10016,5,-20,10,0
-130,-289,10000,6,-20,12,0
-104,-240,9966,6,-20,12,0
-104,-240,9966,3,-20,10,0
-93,-264,10005,3,-20,10,0
-128,-260,9974,4,-20,10,0
-76,-264,10007,6,-17,10,0
-99,-233,10028,5,-20,11,0
-138,-263,9997,4,-21,10,0
-53,-267,10019,5,-20,12,0
-86,-267,10004,3,-20,11,0
-116,-258,10021,4,-21,10,0
-88,-293,9998,3,-20,9,0
-88,-293,9998,4,-21,10,0
-80,-276,9996,4,-21,10,0
-130,-257,10010,4,-19,10,0
-136,-258,10004,4,-18,10,0
-143,-238,10009,6,-20,9,0
-96,-230,9991,5,-22,10,0
-93,-256,10015,4,-22,10,0
-110,-244,9996,4,-21,10,0
-81,-301,9998,4,-18,11,0
-116,-294,10010,4,-21,12,0
-99,-285,10012,4,-18,13,0
-99,-285,10012,4,-18,13,0
-113,-265,10013,4,-17,12,0
-87,-263,10001,3,-18,9,0
-106,-266,10019,5,-23,11,0
-117,-259,9984,4,-21,12,0
-99,-259,10025,4,-19,12,0
-137,-278,10003,3,-19,11,0
-105,-283,10007,5,-20,11,0
-110,-282,10007,4,-18,10,0
-89,-263,9981,4,-19,10,0
-89,-263,9981,4,-19,10,0
-105,-276,9999,3,-17,9,0
-98,-247,10028,4,-16,10,0
-94,-259,10017,3,-17,9,0
-93,-259,10023,4,-22,9,0
-80,-248,10021,5,-21,9,0
-88,-242,9979,5,-21,11,0
-107,-232,10016,4,-22,10,0
-100,-241,10018,4,-22,10,0
-107,-275,10042,4,-21,9,0
-107,-275,10042,4,-21,9,0
-120,-238,9993,3,-19,11,0
-105,-260,10003,4,-17,9,0
-102,-253,9998,5,-21,11,0
-108,-267,10004,5,-21,11,0
-78,-275,10004,4,-20,12,0
-94,-258,9975,4,-20,11,0
-128,-262,9991,5,-20,9,0
-81,-275,9988,4,-18,10,0
-92,-247,10022,4,-20,10,0
-92,-247,10022,4,-19,9,0
-96,-251,9978,4,-19,9,0
-114,-251,9978,3,-17,10,0
-145,-281,10005,6,-20,14,0
-111,-273,9993,6,-21,12,0
-143,-284,9986,4,-21,12,0
-111,-278,10022,4,-20,14,0
-116,-273,10004,4,-18,10,0
-75,-272,9968,5,-20,9,0
-100,-228,9992,5,-20,11,0
-100,-228,9992,5,-20,11,0
-128,-256,9986,4,-20,9,0
-96,-277,10006,3,-19,9,0
-143,-244,10009,4,-22,9,0
-117,-217,10013,4,-21,8,0
-86,-267,9991,4,-21,9,0
-87,-234,10003,3,-21,10,0
-95,-246,10013,3,-19,11,0
-142,-266,10007,3,-20,11,0
-95,-238,10001,4,-20,10,0
-95,-238,10001,4,-20,8,0
-111,-288,9997,3,-20,8,0
-94,-269,10013,2,-17,7,0
-101,-269,9999,4,-20,10,0
-95,-282,10022,3,-19,8,0
-112,-260,10025,4,-20,10,0
-117,-244,10021,6,-21,11,0
-117,-244,10021,4,-20,9,0
-102,-267,10006,4,-20,9,0
-122,-254,10013,4,-18,8,0
-95,-285,10007,5,-20,12,0
-108,-288,10012,5,-23,10,0
-92,-262,10024,7,-21,10,0
-108,-252,10009,6,-21,8,0
-108,-293,10006,5,-22,10,0
-113,-252,10024,4,-20,13,0
-122,-245,10027,4,-19,10,0
-122,-246,9990,4,-19,11,0
-122,-246,9990,4,-19,11,0
-128,-275,9999,3,-19,11,0
-95,-273,9998,4,-18,12,0
-88,-300,10001,5,-21,10,0
-89,-263,10001,4,-21,9,0
-99,-285,10004,6,-20,10,0
-89,-252,10017,4,-19,10,0
-76,-259,9970,5,-19,10,0
-90,-270,10024,4,-19,11,0
-90,-270,10023,4,-20,11,0
-86,-263,10023,4,-20,11,0
-136,-260,10021,3,-20,9,0
-129,-248,10009,3,-21,10,0
-114,-260,10001,4,-21,12,0
-101,-240,10019,6,-22,10,0
-114,-284,10021,4,-22,9,0
-105,-256,10001,4,-19,10,0
-113,-221,10041,4,-18,11,0
-90,-299,10003,4,-20,10,0
-102,-285,10012,4,-19,11,0
-102,-285,10012,4,-19,11,0
-78,-272,9993,4,-18,9,0
-95,-266,10000,4,-18,9,0
-84,-278,9984,5,-22,12,0
-116,-240,10010,5,-22,10,0
-118,-269,10007,4,-20,12,0
-124,-291,9999,5,-19,12,0
-142,-251,10000,7,-20,10,0
-110,-258,10013,5,-21,10,0
-116,-245,10009,4,-20,9,0
-116,-245,10009,3,-18,10,0
-101,-270,9990,3,-18,10,0
-92,-264,10028,2,-19,10,0
-82,-254,10033,4,-21,10,0
-126,-272,10005,4,-21,10,0
-124,-290,10004,3,-20,9,0
-123,-239,10011,5,-20,9,0
-108,-244,10015,6,-20,10,0
-133,-270,10027,4,-21,10,0
-136,-270,9993,4,-20,10,0
-136,-270,9993,4,-20,10,0
-93,-241,10019,3,-20,10,0
-93,-272,10004,4,-17,12,0
-102,-242,10021,7,-19,12,0
-108,-235,9990,4,-21,11,0
-81,-282,10003,3,-21,9,0
-107,-234,10021,4,-20,10,0
-118,-264,9990,6,-22,9,0
-82,-224,9975,4,-19,9,0
-120,-250,9994,4,-20,11,0
-120,-250,9994,4,-20,11,0
-100,-271,9979,3,-20,9,0
-114,-275,10052,3,-21,10,0
-116,-263,10019,4,-20,12,0
-129,-277,9991,6,-24,12,0
-122,-281,10025,6,-22,10,0
-114,-277,9986,4,-20,12,0
-95,-262,9988,4,-19,11,0
-100,-282,9999,6,-20,10,0
-107,-251,10007,4,-20,10,0
-107,-251,10007,4,-20,10,0
-84,-269,10027,1,-20,9,0
-129,-267,10021,3,-18,10,0
-106,-264,9988,5,-21,12,0
-124,-293,10034,5,-22,10,0
-129,-248,10012,4,-20,11,0
-126,-253,9999,3,-20,11,0
-58,-272,10007,4,-19,12,0
-108,-277,9997,3,-18,10,0
-118,-284,10017,3,-20,9,0
-78,-284,10024,3,-20,10,0
-78,-277,10024,3,-20,10,0
-101,-290,10006,3,-15,9,0
-102,-253,9999,6,-18,12,0
-116,-266,10010,5,-22,10,0
-100,-257,9985,5,-21,11,0
-114,-264,10035,4,-20,11,0
-107,-226,10025,3,-20,11,0
-129,-245,10001,6,-19,12,0
-123,-187,10015,5,-19,10,0
-123,-187,10015,3,-21,10,0
-81,-265,10025,3,-21,10,0
-99,-254,10010,2,-18,9,0
-110,-254,9988,4,-18,11,0
-80,-262,9999,6,-18,11,0
-71,-236,9978,4,-20,10,0
-81,-269,10022,4,-19,11,0
-138,-266,9999,3,-18,9,0
-151,-282,10015,4,-21,9,0
-76,-294,9987,4,-20,11,0
-76,-294,9987,4,-20,11,0
-112,-288,10007,4,-20,11,0
-89,-264,10018,3,-20,8,0
-86,-241,10011,3,-19,9,0
-86,-230,9999,3,-19,9,0
-94,-251,10018,4,-21,10,0
-89,-230,10027,4,-18,10,0
-96,-278,10036,6,-20,10,0
-96,-278,10036,3,-18,9,0
-106,-266,10019,3,-18,9,0
-137,-250,10027,3,-18,10,0
-110,-276,9982,5,-21,11,0
-131,-273,10011,4,-21,9,0
-93,-270,10003,6,-21,11,0
-83,-242,10022,4,-18,12,0
-92,-266,10009,3,-21,11,0
-126,-290,9998,5,-21,9,0
-75,-259,10007,3,-20,10,0
-75,-259,10007,3,-20,10,0
-102,-229,10018,2,-20,10,0
-100,-250,10000,3,-19,9,0
-128,-279,10016,4,-23,12,0
-86,-264,9994,3,-21,10,0
-86,-284,10018,4,-19,11,0
-101,-269,10022,3,-18,11,0
-87,-275,9990,3,-20,11,0
-116,-266,10027,4,-20,9,0
-116,-244,10010,4,-21,10,0
-116,-244,10010,4,-21,10,0
-66,-259,9964,2,-18,9,0
-98,-250,9976,4,-15,10,0
-111,-247,10003,7,-18,11,0
-110,-285,10023,6,-20,9,0
-93,-256,10005,6,-20,9,0
-116,-247,9985,6,-21,11,0
-86,-276,10000,4,-20,12,0
-61,-275,9986,4,-21,11,0
-143,-252,9993,3,-20,12,0
-143,-252,9993,3,-20,12,0
-131,-279,10003,3,-19,11,0
-131,-279,10003,3,-19,11,0
-94,-251,10010,4,-21,14,0
-89,-271,10016,5,-21,12,0
-96,-259,9999,3,-21,9,0
-78,-251,10017,4,-22,12,0
-93,-285,10015,4,-20,13,0
-122,-273,10015,5,-21,10,0
-119,-248,9998,4,-19,11,0
-119,-248,10015,3,-17,12,0
-124,-251,10015,3,-17,12,0
-90,-252,10011,3,-16,10,0
-128,-271,10018,4,-19,12,0
-93,-254,10006,6,-21,9,0
-137,-257,9991,5,-21,10,0
-77,-283,10005,6,-20,10,0
-63,-276,10034,4,-19,12,0
-99,-284,10018,4,-19,12,0
-104,-276,10016,4,-18,10,0
-104,-276,10016,4,-18,10,0
-114,-287,10017,4,-20,9,0
-114,-278,10017,2,-18,9,0
-123,-260,9997,4,-20,11,0
-89,-241,10005,3,-21,10,0
-122,-233,10005,3,-21,10,0
-111,-247,10000,4,-18,12,0
-136,-257,9978,4,-19,10,0
-102,-254,10015,4,-21,11,0
-100,-262,9998,4,-21,12,0
-100,-262,9998,4,-18,10,0
-72,-293,9962,4,-18,10,0
-74,-266,10011,2,-15,8,0
-95,-224,9998,3,-16,11,0
-99,-248,9991,4,-20,11,0
-84,-272,10030,5,-21,11,0
-101,-251,10012,5,-20,11,0
-101,-266,10041,6,-21,10,0
-120,-269,9999,4,-20,9,0
-118,-265,9997,4,-20,11,0
-118,-265,9997,5,-19,12,0
-102,-258,9993,3,-16,9,0
-81,-277,9994,3,-16,9,0
-126,-246,10007,4,-18,10,0
-111,-259,10018,4,-20,13,0
-86,-236,10018,5,-23,13,0
-95,-285,10035,4,-22,12,0
-101,-276,10004,4,-21,12,0
-102,-241,10028,3,-17,10,0
-105,-257,10000,3,-18,10,0
-145,-253,10007,4,-21,10,0
-145,-253,10007,4,-21,10,0
-108,-273,10004,3,-17,10,0
-142,-271,9998,3,-17,11,0
-87,-259,10007,4,-24,10,0
-126,-270,9972,3,-23,10,0
-124,-266,10000,4,-23,10,0
-111,-288,10001,5,-21,10,0
-104,-272,10011,4,-20,12,0
-95,-266,9991,5,-20,11,0
-95,-271,9992,6,-20,10,0
-95,-271,9992,6,-20,10,0
-104,-266,10001,3,-20,9,0
-99,-244,9976,4,-19,9,0
-101,-259,10004,5,-21,11,0
-106,-254,9998,4,-20,10,0
-117,-262,10027,4,-20,9,0
-106,-254,10017,6,-21,10,0
-116,-300,10005,5,-20,10,0
-106,-273,10015,5,-19,9,0
-90,-265,9998,3,-18,10,0
-90,-265,9998,3,-18,10,0
-64,-263,10013,3,-20,9,0
-117,-250,10023,3,-19,11,0
-117,-250,10023,3,-19,11,0
-98,-258,9994,4,-21,10,0
-93,-252,10001,4,-21,10,0
-102,-258,10022,3,-20,10,0
-102,-258,10022,4,-18,10,0
-167,-259,9976,4,-18,10,0
-131,-270,10025,3,-18,10,0
-64,-251,10012,6,-21,11,0
-113,-259,9980,5,-23,12,0
-100,-247,10007,4,-20,11,0
-107,-251,10018,5,-20,12,0
-100,-241,10035,4,-21,10,0
-83,-267,9985,4,-21,9,0
-110,-257,10024,3,-20,9,0
-110,-257,10024,3,-20,9,0
-86,-259,10011,3,-22,10,0
-106,-264,9992,3,-18,10,0
-111,-267,9991,4,-20,12,0
-111,-262,10016,5,-22,11,0
-117,-278,9980,5,-22,10,0
-102,-250,10023,3,-21,10,0
-105,-281,10021,3,-18,10,0
-92,-257,10001,4,-20,12,0
-111,-299,10017,4,-20,13,0
-111,-299,10017,4,-20,13,0
-92,-278,10015,2,-21,9,0
-90,-284,9950,2,-21,7,0
-114,-264,10015,4,-19,11,0
-117,-258,9990,4,-21,9,0
-143,-252,10057,6,-21,9,0
-123,-245,10035,4,-20,10,0
-137,-277,10033,3,-20,11,0
-107,-256,10036,4,-20,12,0
-102,-265,9988,3,-18,10,0
-102,-265,9988,3,-20,10,0
-86,-282,10016,4,-20,10,0
-95,-265,10033,3,-19,9,0
-120,-272,10018,6,-20,11,0
-117,-269,10017,4,-21,11,0
-124,-299,9969,3,-21,11,0
-113,-228,9986,4,-20,10,0
-99,-258,10021,4,-21,10,0
-106,-266,9991,2,-20,11,0
-126,-253,9999,3,-21,11,0
-101,-256,9991,3,-19,10,0
-101,-256,9991,3,-19,10,0
-125,-247,10017,1,-17,10,0
-98,-263,9976,4,-18,12,0
-90,-287,9964,3,-21,10,0
-105,-315,9992,5,-21,12,0
-111,-239,10004,5,-20,12,0
-105,-235,9966,4,-20,9,0
-94,-229,9978,3,-20,9,0
-94,-244,10004,4,-19,9,0
-94,-244,10004,4,-20,10,0
-107,-253,10011,4,-20,10,0
-119,-278,10017,2,-15,11,0
-102,-252,10012,4,-17,12,0
-124,-270,10018,5,-20,12,0
-84,-273,9999,4,-20,12,0
-118,-291,10010,3,-20,12,0
-102,-285,9998,4,-20,10,0
-77,-252,10030,4,-20,10,0
-88,-263,10013,3,-19,10,0
-99,-281,9999,3,-20,10,0
-99,-281,9999,3,-20,10,0
-66,-228,10019,2,-18,10,0
-92,-262,10021,4,-18,12,0
-110,-235,10007,6,-21,13,0
-96,-238,10000,5,-22,12,0
-98,-245,9990,5,-21,12,0
-132,-253,10017,5,-20,11,0
-95,-267,10016,4,-20,10,0
-118,-272,10011,3,-18,10,0
-136,-260,9991,4,-21,11,0
-136,-260,9991,4,-21,11,0
-98,-250,10024,3,-20,9,0
-101,-253,10031,2,-20,12,0
-105,-272,10028,6,-23,12,0
-101,-257,10017,7,-21,12,0
-100,-272,10009,4,-18,10,0
-86,-269,10013,4,-20,10,0
-93,-258,10035,4,-20,10,0
-53,-263,9986,4,-20,9,0
-88,-259,9984,4,-20,10,0
-88,-259,9984,4,-20,10,0
-92,-228,10019,4,-17,7,0
-129,-272,9987,2,-18,8,0
-94,-262,9988,6,-21,10,0
-95,-260,10010,5,-21,10,0
-128,-278,10007,4,-21,10,0
-105,-278,10021,4,-19,10,0
-111,-306,10010,4,-20,10,0
-84,-272,10022,4,-18,13,0
-84,-272,10033,4,-19,12,0
-84,-272,10033,4,-19,12,0
-81,-260,9986,3,-18,10,0
-104,-256,10034,4,-13,11,0
-93,-228,10034,6,-18,12,0
-98,-256,10016,5,-21,11,0
-111,-246,9986,5,-20,10,0
-105,-244,10016,4,-20,9,0
-86,-270,10003,4,-18,11,0
-104,-295,10007,5,-20,9,0
-130,-278,9986,3,-20,9,0
-130,-278,9986,3,-20,9,0
-92,-290,9990,3,-21,9,0
-92,-262,9979,4,-21,10,0
-98,-289,10009,6,-22,12,0
-100,-277,10011,5,-21,10,0
-113,-256,9999,4,-21,12,0
-106,-232,10015,5,-20,12,0
-94,-282,10003,4,-21,10,0
-111,-262,10012,4,-21,10,0
-116,-263,10034,4,-20,9,0
-116,-263,10034,4,-20,9,0
-160,-265,10025,3,-18,8,0
-94,-266,10006,2,-18,7,0
-105,-267,10012,4,-20,11,0
-105,-259,9999,5,-22,12,0
-131,-270,9988,6,-21,11,0
-106,-263,10007,5,-20,12,0
-116,-282,10005,4,-20,12,0
-125,-288,10006,5,-21,13,0
-58,-273,10037,4,-19,12,0
-58,-273,10037,3,-20,10,0
-77,-257,10010,3,-20,10,0
-111,-287,9985,3,-21,9,0
-99,-260,9988,5,-22,10,0
-104,-253,9993,6,-21,10,0
-88,-235,10029,6,-21,10,0
-77,-233,9997,4,-18,11,0
-116,-246,10036,5,-20,10,0
-107,-269,10016,5,-21,10,0
-95,-276,10028,4,-21,10,0
-95,-276,10028,4,-20,11,0
-106,-283,10003,4,-20,11,0
-98,-260,9998,3,-17,9,0
-126,-257,10003,4,-17,12,0
-113,-234,10028,3,-21,12,0
-108,-245,10004,4,-21,12,0
-88,-235,10003,6,-20,12,0
-145,-257,10012,4,-20,10,0
-92,-241,10000,4,-20,10,0
-106,-238,10013,5,-20,10,0
-106,-238,10024,5,-20,10,0
-88,-266,10024,5,-20,10,0
-92,-239,10010,3,-17,10,0
-108,-258,10016,3,-17,11,0
-119,-273,9988,4,-20,10,0
-111,-284,9992,4,-21,12,0
-101,-277,10023,4,-20,10,0
-114,-254,9997,3,-21,10,0
-122,-246,10027,4,-20,10,0
-114,-297,10012,6,-20,9,0
-106,-263,10022,6,-18,10,0
-106,-263,10022,6,-18,10,0
-89,-264,9993,4,-18,10,0
-88,-250,9990,4,-18,9,0
-116,-260,9999,6,-23,10,0
-116,-265,10040,4,-21,10,0
-95,-262,9994,3,-21,10,0
-94,-275,10013,4,-19,11,0
-56,-238,10018,4,-20,11,0
-96,-277,10005,5,-17,10,0
-74,-267,10021,4,-20,10,0
-74,-267,10021,4,-20,10,0
-124,-284,9973,1,-19,10,0
-77,-234,10021,3,-18,11,0
-113,-273,9982,6,-20,13,0
-90,-259,9998,7,-21,11,0
-96,-266,10000,5,-21,11,0
-95,-260,10031,4,-21,9,0
-94,-257,10007,4,-19,8,0
-113,-258,10021,6,-19,10,0
-95,-257,9996,5,-18,10,0
-95,-257,9996,5,-18,10,0
-117,-275,9993,2,-19,9,0
-87,-281,10015,1,-17,10,0
-110,-266,9981,6,-21,12,0
-116,-270,10004,4,-21,12,0
-95,-306,10007,5,-21,10,0
-92,-251,10034,5,-19,10,0
-80,-257,10007,4,-18,11,0
-98,-260,10009,4,-18,12,0
-107,-269,10000,4,-20,13,0
-107,-269,10000,4,-20,13,0
-107,-279,9987,3,-18,11,0
-139,-258,10007,4,-15,10,0
-104,-260,10019,6,-18,11,0
-125,-246,10001,5,-21,11,0
-125,-264,10018,5,-21,11,0
-113,-260,9998,4,-20,10,0
-114,-289,10006,4,-20,11,0
-100,-275,10005,4,-19,9,0
-65,-271,10030,4,-18,10,0
-65,-271,10030,4,-18,10,0
-132,-256,10001,4,-18,12,0
-112,-259,9998,6,-19,8,0
-119,-241,10007,6,-20,9,0
-104,-256,10011,6,-21,11,0
-104,-227,10018,3,-21,10,0
-120,-230,10029,4,-18,9,0
-96,-257,10027,6,-19,9,0
-99,-275,10015,4,-21,11,0
-106,-285,10001,5,-21,10,0
-106,-285,10001,5,-21,9,0
-72,-279,9999,5,-20,9,0
-111,-265,10031,3,-19,8,0
-113,-248,9990,4,-21,9,0
-119,-248,9993,6,-23,10,0
-122,-232,9979,6,-22,10,0
-133,-245,9997,5,-21,10,0
-128,-238,9988,4,-18,10,0
-111,-248,10013,3,-21,11,0
-89,-285,10015,4,-21,10,0
-89,-285,10015,3,-21,9,0
-100,-260,10004,3,-21,9,0
-117,-246,9988,3,-21,9,0
-92,-251,10006,6,-20,11,0
-94,-240,10001,5,-20,10,0
-136,-256,9970,4,-20,11,0
-108,-233,10012,4,-20,10,0
-101,-246,9996,4,-20,10,0
-99,-277,9990,3,-20,10,0
-89,-288,10009,4,-20,12,0
-89,-288,10009,4,-21,12,0
-107,-275,10011,4,-21,12,0
-90,-282,10003,3,-17,9,0
-96,-254,9985,3,-16,11,0
-133,-283,10012,4,-20,12,0
-75,-236,9981,4,-19,10,0
-84,-248,9996,5,-21,10,0
-110,-232,10010,4,-19,8,0
-106,-218,10024,5,-20,9,0
-98,-250,9987,4,-20,9,0
-98,-250,9992,4,-22,13,0
-114,-282,9992,4,-22,13,0
-80,-257,10017,3,-16,10,0
-90,-276,9990,7,-16,10,0
-83,-226,10027,6,-21,12,0
-119,-276,10016,6,-20,11,0
-98,-270,10025,5,-18,11,0
-111,-296,9993,4,-20,11,0
-116,-279,9982,4,-21,10,0
-112,-253,9994,4,-19,12,0
-59,-258,10005,4,-19,12,0
-59,-258,10005,4,-19,12,0
-84,-271,10000,3,-20,9,0
-107,-254,10005,4,-19,9,0
-77,-269,9996,6,-21,14,0
-125,-246,10024,6,-20,12,0
-83,-257,10006,5,-20,10,0
-130,-235,9988,4,-18,10,0
-93,-234,9964,4,-18,12,0
-138,-266,9978,4,-20,11,0
-105,-262,9994,4,-21,10,0
-105,-262,9994,4,-21,10,0
-102,-288,10009,1,-20,9,0
-89,-251,9981,3,-20,10,0
-101,-232,10006,6,-22,10,0
-92,-262,10016,4,-21,10,0
-118,-267,10012,4,-20,11,0
-86,-256,10015,4,-19,9,0
-106,-257,9984,4,-20,9,0
-90,-271,9986,4,-20,9,0
-113,-265,10035,3,-19,10,0
-113,-265,10035,3,-19,10,0
-104,-265,10023,3,-18,9,0
-101,-276,10019,4,-16,9,0
-93,-264,9990,5,-20,13,0
-100,-248,10016,5,-22,11,0
-83,-287,10059,5,-21,10,0
-94,-259,10005,4,-22,10,0
-116,-266,10010,4,-20,8,0
-144,-263,10027,3,-19,9,0
-93,-278,10013,5,-20,10,0
-93,-278,10013,5,-20,10,0
-80,-258,9993,3,-18,9,0
-96,-263,10009,3,-15,10,0
-112,-250,10018,4,-19,11,0
-110,-270,10007,4,-21,9,0
-107,-272,10033,5,-19,10,0
-84,-271,9998,4,-20,11,0
-92,-257,9998,6,-20,10,0
-82,-240,10007,4,-20,10,0
-101,-285,10024,3,-20,11,0
-101,-285,10024,3,-20,11,0
-84,-239,9997,3,-20,9,0
-100,-244,10015,3,-17,10,0
-98,-264,9986,4,-19,12,0
-89,-288,9991,4,-21,12,0
-107,-262,10003,4,-22,11,0
-102,-252,9992,4,-21,9,0
-106,-260,9993,4,-18,10,0
-71,-234,9986,3,-18,12,0
-92,-254,9975,4,-21,12,0
-92,-254,9975,4,-20,9,0
-106,-276,10005,4,-20,9,0
-90,-229,9982,2,-20,8,0
-128,-252,10004,3,-20,10,0
-78,-269,10040,5,-22,11,0
-105,-248,10016,4,-20,10,0
-107,-241,10006,4,-18,10,0
-139,-251,10016,4,-20,11,0
-99,-258,10009,3,-21,12,0
-104,-267,9993,3,-18,11,0
-104,-267,9993,4,-20,13,0
-123,-294,10021,4,-20,13,0
-80,-283,10006,2,-18,10,0
-69,-270,10024,4,-19,11,0
-111,-277,10006,5,-20,11,0
-102,-281,10028,4,-19,11,0
-118,-264,10009,4,-19,10,0
-107,-293,10007,4,-20,8,0
-110,-281,10024,3,-20,10,0
-119,-287,9984,4,-21,11,0
-119,-287,10010,6,-20,10,0
-116,-265,10010,6,-20,10,0
-124,-252,9998,3,-17,9,0
-104,-240,10005,3,-17,10,0
-80,-251,10019,5,-21,10,0
-119,-241,10007,3,-20,11,0
-104,-266,10004,4,-20,12,0
-99,-241,10022,5,-19,10,0
-102,-271,10024,6,-20,10,0
-95,-267,10007,5,-20,10,0
-112,-260,10009,5,-21,10,0
-88,-284,9986,5,-21,10,0
-76,-258,10013,4,-20,12,0
-76,-258,10013,4,-20,12,0
-82,-256,9992,5,-21,12,0
-105,-247,10005,5,-20,10,0
-78,-266,10012,6,-19,9,0
-84,-276,10005,6,-18,11,0
-84,-276,10005,6,-18,11,0
-102,-285,10011,3,-20,11,0
-94,-262,9969,3,-19,10,0
-99,-270,10013,4,-21,11,0
-95,-257,9979,4,-20,11,0
-105,-300,10004,3,-20,10,0
-86,-275,10010,4,-22,9,0
-111,-265,10007,5,-21,11,0
-72,-272,9984,3,-21,12,0
-99,-270,10035,3,-21,11,0
-99,-270,10035,3,-21,11,0
-111,-246,10028,4,-20,10,0
-104,-278,10027,4,-20,11,0
-95,-277,9998,4,-20,12,0
-112,-254,9998,4,-21,12,0
-100,-270,9981,4,-21,10,0
-110,-254,9988,4,-22,11,0
-101,-250,10007,3,-21,12,0
-102,-232,9986,4,-20,10,0
-104,-267,9981,4,-20,11,0
-104,-267,9981,4,-20,11,0
-99,-263,10015,3,-19,10,0
-100,-242,10021,3,-16,10,0
-83,-264,9990,6,-20,12,0
-113,-269,10059,6,-21,10,0
-84,-256,9994,4,-21,9,0
-117,-311,10010,4,-19,9,0
-100,-258,10029,4,-18,9,0
-80,-250,10053,4,-20,12,0
-86,-257,9991,4,-20,12,0
-86,-257,9991,4,-20,12,0
-89,-251,10027,3,-19,10,0
-101,-277,9996,4,-15,10,0
-128,-276,9985,5,-18,10,0
-107,-260,10018,4,-21,12,0
-107,-265,9994,3,-20,11,0
-118,-247,10018,4,-21,10,0
-90,-247,9978,3,-20,12,0
-82,-279,9987,4,-20,12,0
-105,-258,10011,4,-21,12,0
-105,-258,10011,4,-21,9,0
-102,-262,9979,4,-21,9,0
-90,-291,9993,4,-18,8,0
-95,-253,9976,6,-23,10,0
-112,-282,10007,5,-23,10,0
-120,-278,10021,5,-21,11,0
-145,-288,10031,4,-20,9,0
-129,-263,9998,4,-20,11,0
-98,-252,10010,4,-21,10,0
-107,-221,10034,6,-21,11,0
-107,-221,10034,4,-19,10,0
-132,-238,10011,4,-19,10,0
-70,-247,10010,2,-18,9,0
-98,-283,10018,3,-20,11,0
-104,-266,9998,4,-24,12,0
-102,-293,10015,4,-21,10,0
-77,-258,9991,5,-20,11,0
-69,-254,10021,4,-20,11,0
-96,-275,9993,3,-20,12,0
-130,-226,9999,4,-20,10,0
-130,-226,9999,4,-20,9,0
-119,-289,10004,4,-20,9,0
-86,-297,10006,2,-18,10,0
-149,-250,9984,3,-20,13,0
-106,-263,9980,6,-21,14,0
-117,-269,9998,6,-22,12,0
-87,-287,9981,4,-20,11,0
-100,-259,10015,5,-21,9,0
-70,-244,10006,6,-21,10,0
-110,-248,10003,2,-20,10,0
-110,-248,9984,4,-20,10,0
-95,-246,9984,4,-20,10,0
-113,-307,9984,4,-18,10,0
-113,-307,9984,4,-18,10,0
-82,-271,10009,4,-18,10,0
-122,-246,10013,5,-18,12,0
-88,-267,10007,4,-20,13,0
-93,-293,9974,6,-21,9,0
-104,-258,10022,6,-21,9,0
-104,-258,10022,6,-21,9,0
-124,-260,10018,2,-18,10,0
-107,-287,10005,4,-17,10,0
-83,-289,10025,5,-20,11,0
-116,-273,9986,4,-20,11,0
-104,-267,9961,5,-19,12,0
-87,-285,10021,4,-20,10,0
-101,-299,9993,4,-20,11,0
-95,-238,10031,4,-20,9,0
-104,-288,10028,5,-20,11,0
-104,-288,10028,5,-20,11,0
-83,-267,10000,4,-21,9,0
-88,-277,10009,3,-18,10,0
-95,-250,9993,4,-23,10,0
-108,-269,9997,3,-23,10,0
-117,-267,9992,4,-21,10,0
-117,-257,10010,3,-20,12,0
-105,-265,9991,3,-20,11,0
-95,-281,9990,5,-19,10,0
-70,-262,10006,5,-21,10,0
-70,-262,10006,5,-21,10,0
-98,-269,9984,3,-21,9,0
-107,-258,10027,3,-21,10,0
-105,-272,10019,6,-23,11,0
-84,-288,10028,4,-21,12,0
-143,-270,10003,3,-19,11,0
-108,-271,10016,4,-21,10,0
-102,-260,10013,3,-22,10,0
-74,-290,10021,4,-20,9,0
-88,-269,10012,4,-19,10,0
-88,-269,10012,4,-19,10,0
-113,-272,9998,3,-18,9,0
-98,-242,9998,1,-16,10,0
-119,-265,9998,6,-20,11,0
-116,-263,9975,6,-20,10,0
-118,-230,10006,4,-21,9,0
-102,-272,9994,4,-19,9,0
-92,-246,10005,6,-20,9,0
-88,-267,9949,4,-20,8,0
-108,-248,10019,3,-18,11,0
-108,-248,10019,3,-18,11,0
-72,-254,9999,3,-18,10,0
-95,-257,9973,3,-15,9,0
-110,-264,9975,4,-17,12,0
-89,-272,10000,6,-23,12,0
-114,-293,9990,4,-20,12,0
-95,-277,10006,5,-20,10,0
-112,-276,10001,4,-20,10,0
-98,-246,10019,6,-19,12,0
-111,-270,10018,7,-20,11,0
-111,-270,10018,7,-21,10,0
-124,-283,9992,6,-21,10,0
-102,-226,9999,3,-18,9,0
-89,-256,10031,5,-18,10,0
-100,-281,10003,4,-21,11,0
-81,-247,10007,5,-23,10,0
-105,-276,10022,3,-20,11,0
-74,-247,10024,4,-20,10,0
-61,-253,10003,4,-18,9,0
-117,-257,9988,4,-20,10,0
-117,-257,9988,3,-21,9,0
-110,-267,10018,3,-21,9,0
-119,-236,10007,3,-20,9,0
-108,-247,10036,4,-20,12,0
-138,-281,10001,4,-23,12,0
-137,-276,10012,4,-21,12,0
-113,-279,10016,3,-20,12,0
-118,-295,10019,4,-19,10,0
-129,-277,10016,3,-20,11,0
-133,-260,10003,4,-18,9,0
-133,-260,10003,5,-17,9,0
-82,-245,10024,5,-17,9,0
-98,-257,10004,3,-18,9,0
-107,-230,9979,4,-21,11,0
-86,-244,10017,4,-22,10,0
-96,-263,10018,4,-21,12,0
-117,-251,10021,5,-19,10,0
-88,-270,10022,4,-19,10,0
-106,-278,9980,3,-20,10,0
-136,-278,10025,4,-20,9,0
-118,-297,10018,3,-21,10,0
-118,-297,10018,3,-21,10,0
-99,-256,9998,3,-17,10,0
-83,-259,10021,4,-17,11,0
-98,-278,9963,5,-22,10,0
-107,-266,9987,5,-21,11,0
-106,-262,10007,5,-20,10,0
-90,-265,10010,5,-19,10,0
-141,-263,9996,3,-20,10,0
-99,-282,10024,4,-20,10,0
-104,-276,10010,6,-19,11,0
-104,-276,10010,6,-19,11,0
-110,-265,9987,3,-17,10,0
-93,-265,10005,3,-15,12,0
-104,-257,10018,4,-20,11,0
-76,-266,10000,4,-20,10,0
-62,-296,10015,4,-21,9,0
-82,-263,10036,6,-21,10,0
-119,-285,10005,5,-19,9,0
-83,-259,10027,4,-18,10,0
-77,-258,10031,4,-18,10,0
-77,-258,10031,4,-18,10,0
-107,-247,10022,2,-19,7,0
-129,-256,9992,3,-17,9,0
-113,-232,10012,5,-20,10,0
-89,-262,10010,6,-21,10,0
-113,-230,9993,5,-21,10,0
-108,-267,10013,4,-20,10,0
-87,-260,10011,4,-19,9,0
-76,-272,10022,4,-20,11,0
-81,-253,10009,4,-19,9,0
-81,-253,10009,4,-19,9,0
-107,-278,10000,3,-20,10,0
-107,-263,10025,3,-21,11,0
-93,-246,10034,4,-20,10,0
-68,-260,10022,5,-21,10,0
-113,-273,10037,3,-20,10,0
-114,-251,10027,4,-19,10,0
-99,-258,10027,4,-19,10,0
-102,-241,10016,4,-19,10,0
-107,-253,10012,4,-18,10,0
-107,-253,10012,4,-18,10,0
-113,-253,10016,4,-21,9,0
-80,-227,10001,2,-17,9,0
-94,-275,10012,4,-19,12,0
-77,-279,10007,5,-20,12,0
-96,-276,10018,4,-21,12,0
-105,-281,9994,4,-20,10,0
-96,-281,9992,6,-20,10,0
-112,-287,9998,4,-21,11,0
-90,-253,10024,4,-19,10,0
-90,-253,10024,4,-19,9,0
-101,-269,10001,4,-19,9,0
-105,-262,9998,3,-17,9,0
-77,-272,9992,4,-17,12,0
-95,-271,9992,4,-21,11,0
-98,-263,10010,4,-20,11,0
-88,-265,9981,4,-20,10,0
-96,-245,10004,3,-19,10,0
-94,-279,9999,6,-20,12,0
-86,-282,10012,4,-20,10,0
-86,-282,10012,5,-21,11,0
-117,-277,10000,5,-21,11,0
-126,-258,10024,3,-17,11,0
-110,-288,9990,5,-18,12,0
-98,-285,10000,4,-21,13,0
-117,-295,9999,4,-21,11,0
-119,-275,9985,4,-18,12,0
-130,-291,9976,4,-19,12,0
-111,-263,9992,5,-22,10,0
-116,-266,10005,6,-20,12,0
-116,-266,10005,4,-18,11,0
-105,-239,10006,4,-18,11,0
-69,-236,9981,2,-20,8,0
-88,-239,9994,3,-18,9,0
-107,-270,10007,4,-22,11,0
-87,-275,9990,4,-21,12,0
-108,-244,10003,4,-20,13,0
-108,-259,9985,5,-21,10,0
-118,-284,10016,5,-21,10,0
-83,-291,10010,5,-20,12,0
-83,-291,10003,3,-19,11,0
-130,-285,10003,3,-19,11,0
-99,-285,9988,2,-17,9,0
-114,-267,10009,3,-19,10,0
-102,-234,9984,3,-20,10,0
-90,-253,10003,4,-21,9,0
-88,-260,9998,3,-20,11,0
-111,-256,9992,4,-20,10,0
-110,-262,10012,3,-20,10,0
-93,-244,10006,4,-19,10,0
-94,-252,10023,4,-20,10,0
-94,-252,10023,4,-20,10,0
-99,-283,9973,3,-18,8,0
-118,-309,9994,4,-17,10,0
-86,-238,9994,6,-20,13,0
-81,-252,10041,5,-21,12,0
-96,-294,10031,5,-21,12,0
-98,-283,10016,6,-20,11,0
-102,-260,10005,3,-21,10,0
-104,-270,10005,5,-21,10,0
-112,-247,10011,4,-23,11,0
-112,-247,10011,4,-23,11,0
-126,-262,10012,4,-20,9,0
-99,-229,10012,4,-17,10,0
-114,-224,10018,4,-20,12,0
-101,-236,9994,4,-23,10,0
-112,-253,10018,4,-21,10,0
-104,-307,10028,3,-19,10,0
-93,-235,10027,4,-20,11,0
-106,-283,9987,5,-18,10,0
-147,-278,9975,4,-19,10,0
-147,-278,9975,4,-19,10,0
-94,-279,10010,3,-20,10,0
-118,-273,9999,1,-18,9,0
-125,-276,10030,5,-20,12,0
-111,-275,9999,6,-21,11,0
-94,-260,10009,4,-20,10,0
-117,-257,10011,4,-18,12,0
-119,-252,10024,6,-21,11,0
-101,-254,10012,3,-20,10,0
-114,-234,10007,4,-20,10,0
-114,-234,10007,4,-20,10,0
-110,-234,10001,4,-18,9,0
-110,-238,10010,3,-17,10,0
-105,-275,9972,6,-19,12,0
-99,-259,9981,4,-21,10,0
-78,-248,10024,4,-20,11,0
-98,-272,9998,5,-20,12,0
-98,-275,10041,4,-21,10,0
-124,-260,9998,3,-20,9,0
-99,-272,10006,4,-19,10,0
-99,-272,10006,4,-19,10,0
-92,-267,10001,3,-19,9,0
-118,-265,9993,3,-18,11,0
-93,-252,9994,5,-21,12,0
-104,-254,10019,5,-23,12,0
-122,-260,9980,6,-24,11,0
-98,-278,10027,4,-18,10,0
-63,-270,10001,5,-19,9,0
-95,-260,10018,4,-20,11,0
-96,-279,9988,4,-20,11,0
-96,-279,9988,4,-19,10,0
-117,-279,9986,4,-19,10,0
-95,-265,10016,5,-17,9,0
-92,-247,10021,5,-18,11,0
-154,-266,10029,5,-21,12,0
-129,-287,9988,4,-20,12,0
-113,-272,9988,4,-20,12,0
-126,-279,9974,4,-18,11,0
-143,-299,10036,4,-19,10,0
-120,-278,9996,4,-19,12,0
-120,-278,9996,4,-21,12,0
-106,-240,9996,4,-21,12,0
-77,-262,10021,3,-18,10,0
-107,-233,10009,4,-19,11,0
-88,-251,10028,5,-22,10,0
-126,-273,9970,6,-22,11,0
-111,-263,10001,6,-20,11,0
-50,-265,10030,4,-18,12,0
-145,-285,10017,4,-20,11,0
-136,-266,9985,4,-20,9,0
-95,-287,10009,5,-21,10,0
-88,-273,9975,4,-20,10,0
-98,-251,10003,6,-20,12,0
-69,-262,9994,4,-20,10,0
-117,-271,10010,4,-22,10,0
-94,-253,10010,6,-19,10,0
-94,-257,10024,4,-20,10,0
-94,-257,10024,4,-20,10,0
-126,-259,10000,3,-20,10,0
-93,-290,10021,3,-20,11,0
-126,-267,9994,4,-22,10,0
-78,-250,10016,6,-23,12,0
-114,-285,10036,4,-19,10,0
-106,-271,10000,4,-20,12,0
-110,-275,10003,3,-21,10,0
-106,-250,10037,4,-19,10,0
-62,-262,10011,4,-18,9,0
-62,-262,10011,4,-18,9,0
-88,-263,9978,4,-19,7,0
-117,-252,10016,5,-16,10,0
-90,-259,9981,6,-18,12,0
-116,-258,10018,3,-20,12,0
-106,-276,10025,4,-20,10,0
-89,-269,10018,6,-20,11,0
-82,-246,9991,4,-22,12,0
-126,-271,10025,4,-21,10,0
-100,-282,9992,5,-21,11,0
-100,-282,9992,5,-21,11,0
-105,-266,9984,2,-19,9,0
-88,-265,9990,2,-18,7,0
-102,-257,9987,3,-21,10,0
-104,-282,10005,5,-21,10,0
-90,-273,9990,4,-19,12,0
-86,-275,10009,5,-18,12,0
-77,-278,9990,5,-17,10,0
-68,-251,9966,5,-19,9,0
-120,-246,9991,4,-19,11,0
-120,-246,9991,4,-19,11,0
-122,-230,10006,2,-20,9,0
-95,-232,10025,1,-18,9,0
-104,-250,10021,4,-21,10,0
-102,-275,9991,5,-22,10,0
-92,-289,9985,5,-21,12,0
-110,-288,10000,4,-20,10,0
-107,-293,9992,4,-21,9,0
-93,-303,10030,3,-20,10,0
-90,-277,9986,3,-19,10,0
-90,-277,9986,3,-19,10,0
-83,-240,10033,4,-17,11,0
-75,-229,10009,4,-19,11,0
-142,-236,10007,5,-20,10,0
-123,-260,10005,6,-20,12,0
-81,-264,10012,5,-19,10,0
-90,-282,9998,4,-20,9,0
-78,-244,9985,4,-19,11,0
-94,-266,10009,4,-21,13,0
-100,-288,10013,3,-21,12,0
-100,-288,10013,3,-21,12,0
-83,-250,10005,3,-20,12,0
-116,-257,10011,4,-18,10,0
-80,-270,9993,4,-18,10,0
-83,-259,9985,4,-21,11,0
-110,-269,10001,4,-23,12,0
-125,-294,9993,4,-20,12,0
-107,-275,10012,6,-21,10,0
-106,-269,10036,4,-20,10,0
-98,-283,10016,4,-20,10,0
-98,-283,10016,4,-20,10,0
-88,-250,10021,4,-20,10,0
-89,-246,10003,3,-18,10,0
-108,-216,10003,4,-19,10,0
-106,-293,9990,6,-22,10,0
-116,-228,10004,4,-22,10,0
-95,-258,10024,5,-20,11,0
-131,-277,10019,3,-20,8,0
-94,-266,10001,4,-21,9,0
-95,-266,10013,4,-21,12,0
-95,-266,10013,4,-20,11,0
-107,-263,10023,4,-20,11,0
-83,-282,10023,3,-17,9,0
-117,-283,10016,4,-19,10,0
-112,-290,10016,4,-21,12,0
-123,-245,10001,6,-21,10,0
-111,-271,10018,4,-21,11,0
-104,-256,9963,6,-21,9,0
-100,-254,9985,3,-21,9,0
-94,-235,10015,3,-21,10,0
-94,-235,9994,3,-21,10,0
-100,-233,9994,3,-21,10,0
-104,-270,9987,3,-21,9,0
-92,-254,9994,2,-20,9,0
-106,-247,9973,4,-22,12,0
-87,-269,10018,4,-18,10,0
-66,-254,9990,2,-17,9,0
-100,-267,9998,4,-20,9,0
-84,-260,9999,4,-21,10,0
-84,-260,9999,4,-21,10,0
-105,-252,10025,1,-19,9,0
-72,-244,10030,3,-17,9,0
-105,-234,9990,4,-20,10,0
-117,-244,9990,5,-20,12,0
-111,-247,10011,6,-18,12,0
-105,-262,10006,3,-21,9,0
-105,-279,9984,4,-18,9,0
-105,-275,10015,4,-19,11,0
-141,-269,10023,4,-20,10,0
-141,-269,10023,4,-20,10,0
-114,-256,9975,3,-19,10,0
-112,-273,9981,3,-18,10,0
-112,-262,9975,4,-20,13,0
-86,-234,10015,5,-20,10,0
-89,-267,9986,6,-20,10,0
-71,-246,10003,4,-20,10,0
-107,-267,10021,4,-19,10,0
-113,-251,10010,5,-18,9,0
-87,-259,10025,4,-19,9,0
-87,-259,10025,4,-19,9,0
-128,-265,10022,3,-18,11,0
-102,-282,10009,4,-16,12,0
-122,-267,9981,4,-19,12,0
-110,-273,9984,5,-21,10,0
-108,-267,9999,5,-20,9,0
-101,-295,10005,3,-20,10,0
-112,-263,9981,4,-20,10,0
-88,-256,10029,6,-21,10,0
-107,-248,10018,3,-20,9,0
-107,-248,10018,3,-20,9,0
-87,-236,10011,3,-21,7,0
-86,-220,10018,3,-17,10,0
-96,-257,10065,4,-18,12,0
-94,-235,10021,4,-19,12,0
-92,-266,9990,6,-21,12,0
-112,-302,10010,4,-19,10,0
-101,-254,10001,4,-21,10,0
-108,-278,10006,4,-18,12,0
-101,-251,10027,5,-20,11,0
-101,-251,10027,5,-20,11,0
-120,-273,9998,4,-21,10,0
-98,-241,10031,4,-20,9,0
-107,-282,9993,4,-19,12,0
-61,-266,10010,4,-21,12,0
-129,-271,10007,4,-22,11,0
-89,-290,9996,4,-21,10,0
-89,-251,10015,3,-19,12,0
-107,-239,10006,4,-18,12,0
-99,-277,10000,4,-19,11,0
-99,-277,10000,4,-20,10,0
-90,-260,9986,4,-20,10,0
-98,-244,10024,3,-17,10,0
-95,-242,10005,6,-20,12,0
-89,-265,10012,5,-22,12,0
-106,-257,9999,5,-22,11,0
-100,-259,10016,4,-20,10,0
-92,-258,10013,4,-21,9,0
-124,-265,9996,4,-20,11,0
-120,-276,10034,5,-22,12,0
-120,-276,10034,3,-18,11,0
-95,-283,9998,3,-18,11,0
-111,-290,9973,3,-15,7,0
-114,-252,10001,5,-17,10,0
-93,-258,10007,4,-20,11,0
-86,-247,10000,6,-20,10,0
-89,-250,9997,4,-21,11,0
-84,-253,10033,4,-21,10,0
-98,-242,9999,4,-20,10,0
-100,-252,10004,4,-20,10,0
-100,-252,10004,5,-22,10,0
-99,-247,9987,5,-22,10,0
-126,-246,9973,4,-17,9,0
-137,-247,10018,4,-17,9,0
-102,-252,9993,4,-20,10,0
-130,-269,10001,4,-21,12,0
-96,-253,9994,4,-21,10,0
-66,-248,9994,4,-21,9,0
-93,-262,9979,3,-20,9,0
-74,-264,9992,4,-20,9,0
-108,-214,10023,4,-21,12,0
-108,-214,10023,4,-21,12,0
-132,-254,10007,4,-20,9,0
-112,-279,9994,3,-18,7,0
-72,-263,10022,5,-20,13,0
-113,-244,9999,4,-20,11,0
-94,-242,10016,4,-20,11,0
-99,-247,9988,4,-20,10,0
-75,-276,10010,5,-18,12,0
-101,-258,10010,5,-18,11,0
-78,-262,10003,6,-21,11,0
-78,-262,10003,6,-21,11,0
-92,-260,10018,4,-20,7,0
-118,-296,10004,4,-20,10,0
-87,-263,10013,4,-22,11,0
-122,-288,10005,3,-21,9,0
-76,-257,9992,3,-20,10,0
-102,-258,10011,4,-20,11,0
-116,-271,10001,4,-20,11,0
-94,-234,9982,3,-21,9,0
-107,-271,9986,3,-20,10,0
-107,-271,9986,3,-20,10,0
-101,-244,10005,3,-18,9,0
-77,-278,9985,3,-17,10,0
-106,-265,9981,3,-20,12,0
-86,-254,10009,3,-21,12,0
-124,-269,9991,3,-20,11,0
-93,-260,10013,6,-20,10,0
-99,-267,10001,4,-20,10,0
-92,-259,9982,4,-20,11,0
-124,-263,10000,4,-20,9,0
-124,-263,10000,4,-20,9,0
-147,-236,9999,3,-19,8,0
-132,-258,10011,3,-18,12,0
-98,-264,10005,6,-21,11,0
-94,-262,9996,6,-23,12,0
-94,-260,10012,4,-21,11,0
-102,-251,10006,4,-20,10,0
-96,-266,10019,4,-18,11,0
-107,-278,9987,6,-20,11,0
-82,-275,9993,5,-20,12,0
-141,-270,10003,5,-21,11,0
-96,-284,10010,4,-19,10,0
-131,-228,10015,4,-19,11,0
-123,-295,9999,4,-19,12,0
-107,-242,10010,6,-21,10,0
-143,-263,10005,5,-19,10,0
-143,-263,10005,5,-19,10,0
-100,-230,9996,4,-20,9,0
-90,-238,10006,3,-21,10,0
-108,-232,9988,3,-20,13,0
-110,-239,9987,4,-21,12,0
-113,-250,10022,3,-21,11,0
-113,-258,10005,4,-21,11,0
-93,-256,9990,4,-20,10,0
-110,-283,9997,4,-20,10,0
-111,-247,10007,4,-20,9,0
-111,-247,10007,4,-18,10,0
-80,-256,10013,4,-18,10,0
-94,-254,10006,1,-16,8,0
-118,-294,10011,3,-18,10,0
-102,-270,10025,6,-22,10,0
-100,-224,10022,4,-21,10,0
-65,-279,10013,4,-20,10,0
-93,-278,9991,6,-19,12,0
-101,-276,9992,4,-20,12,0
-87,-272,10027,5,-20,12,0
-87,-272,10027,4,-19,10,0
-100,-267,9999,3,-19,10,0
-94,-263,9998,3,-19,10,0
-125,-264,10006,3,-20,12,0
-99,-251,10010,4,-21,12,0
-137,-272,9980,4,-20,12,0
-119,-271,9999,5,-21,13,0
-84,-265,9999,4,-21,12,0
-105,-257,9961,4,-21,12,0
-81,-275,10003,3,-18,10,0
-81,-275,9991,4,-20,10,0
-89,-247,9991,4,-20,10,0
-124,-233,10003,2,-18,7,0
-119,-229,9970,4,-18,10,0
-114,-247,10005,4,-21,11,0
-106,-257,10018,4,-20,9,0
-108,-277,10000,5,-20,9,0
-90,-250,9994,3,-20,13,0
-86,-254,10001,3,-20,11,0
-107,-276,10019,4,-19,9,0
-98,-288,10019,4,-20,9,0
-98,-288,10019,4,-20,9,0
-114,-271,9991,2,-21,10,0
-95,-275,10007,2,-20,9,0
-123,-282,10024,4,-22,11,0
-128,-275,10021,5,-21,10,0
-78,-275,10030,4,-20,10,0
-114,-269,10011,4,-18,9,0
-93,-272,10000,4,-20,11,0
-95,-244,9999,4,-21,11,0
-116,-242,10004,4,-20,11,0
-116,-242,10004,4,-20,11,0
-130,-258,10033,2,-18,9,0
-105,-230,10041,2,-19,10,0
-99,-276,10010,5,-20,12,0
-113,-284,9986,6,-21,11,0
-112,-302,9998,4,-20,11,0
-105,-279,9986,4,-21,10,0
-92,-288,10000,4,-22,10,0
-84,-233,10027,4,-20,9,0
-149,-251,10015,4,-19,10,0
-126,-258,9991,5,-17,10,0
-126,-258,9991,5,-17,10,0
-132,-245,9982,4,-17,11,0
-132,-264,10012,6,-21,14,0
-116,-276,10023,4,-21,14,0
-89,-226,10013,6,-21,11,0
-88,-258,9992,4,-19,11,0
-78,-279,9999,4,-20,11,0
-82,-258,10012,3,-20,10,0
-45,-253,10015,5,-22,10,0
-45,-253,10015,5,-22,10,0
-108,-260,10023,3,-20,7,0
-94,-273,10016,3,-15,8,0
-132,-270,9985,6,-19,10,0
-100,-240,10011,4,-23,11,0
-129,-246,10009,3,-20,12,0
-118,-272,9999,3,-19,12,0
-125,-289,10022,4,-19,12,0
-113,-288,10047,6,-21,11,0
-107,-266,9996,6,-23,10,0
-107,-266,9996,6,-23,10,0
-98,-254,9990,3,-21,7,0
-102,-256,9994,3,-18,8,0
-90,-239,10028,5,-21,12,0
-74,-232,10001,3,-21,11,0
-92,-215,10001,5,-21,12,0
-118,-260,10013,5,-20,10,0
-124,-262,10023,5,-21,10,0
-83,-279,10005,4,-20,12,0
-80,-270,10022,5,-20,10,0
-80,-270,10022,5,-20,8,0
-119,-273,9990,2,-20,8,0
-132,-283,9991,3,-21,10,0
-139,-270,10019,3,-20,12,0
-119,-312,10025,4,-22,11,0
-90,-275,10006,4,-21,9,0
-122,-260,10005,4,-19,11,0
-137,-277,10007,3,-20,12,0
-102,-254,10005,4,-20,14,0
-95,-251,10005,4,-20,12,0
-104,-264,9998,4,-18,11,0
-104,-264,9998,4,-18,11,0
-110,-264,10015,3,-20,11,0
-98,-262,9997,4,-20,10,0
-96,-235,10017,4,-20,9,0
-104,-270,9985,6,-21,10,0
-104,-270,9985,6,-21,12,0
-70,-273,10019,6,-21,12,0
-84,-263,10003,4,-17,10,0
-96,-248,10040,3,-17,10,0
-114,-239,10016,4,-21,11,0
-141,-226,10009,5,-22,12,0
-94,-264,9987,6,-22,13,0
-88,-244,10042,4,-20,10,0
-112,-258,10027,4,-22,10,0
-114,-250,10011,3,-20,10,0
-89,-250,10019,5,-20,10,0
-89,-262,10019,5,-20,10,0
-87,-256,10001,4,-18,9,0
-72,-260,10024,3,-17,11,0
-110,-257,10007,4,-21,11,0
-118,-254,10013,4,-20,12,0
-95,-248,10041,4,-20,10,0
-138,-251,9994,4,-18,9,0
-90,-254,9999,4,-20,9,0
-105,-253,9992,4,-21,10,0
-93,-248,10004,3,-21,10,0
-114,-275,10022,4,-20,10,0
-114,-275,10022,4,-20,10,0
-93,-251,10027,5,-18,10,0
-96,-299,10010,4,-22,10,0
-98,-247,10004,6,-22,14,0
-84,-282,10017,4,-21,10,0
-87,-288,9994,4,-21,10,0
-89,-285,9992,4,-21,12,0
-113,-260,10005,4,-18,10,0
-110,-245,10012,5,-20,10,0
-110,-245,10012,5,-20,10,0
-99,-248,10011,3,-17,10,0
-113,-266,10007,4,-18,10,0
-117,-248,9997,6,-20,12,0
-100,-281,9981,4,-23,10,0
-106,-285,10028,4,-20,8,0
-105,-278,10012,6,-20,10,0
-110,-282,9996,5,-20,10,0
-96,-266,9988,6,-21,10,0
-132,-247,10049,6,-20,11,0
-132,-247,10049,6,-20,11,0
-136,-234,10028,3,-19,8,0
-101,-263,9992,3,-17,8,0
-117,-218,9981,6,-20,11,0
-102,-263,9988,3,-20,10,0
-92,-299,10010,4,-20,10,0
-84,-279,10017,5,-20,12,0
-102,-272,10004,4,-21,12,0
-100,-260,9997,4,-20,10,0
-82,-270,10010,4,-21,10,0
-82,-270,10010,4,-21,10,0
-114,-260,9982,4,-20,10,0
-110,-234,10028,4,-16,9,0
-95,-256,9988,4,-18,11,0
-89,-270,9997,6,-21,10,0
-112,-296,9997,3,-20,9,0
-122,-248,10027,3,-21,12,0
-82,-297,10028,3,-20,9,0
-95,-258,9998,4,-21,10,0
-86,-248,9991,4,-21,10,0
-128,-252,9992,4,-22,10,0
-128,-252,9992,4,-22,10,0
-69,-259,10012,2,-18,10,0
-76,-241,10023,4,-20,12,0
-92,-260,10009,6,-20,11,0
-101,-235,9992,6,-21,13,0
-98,-241,9996,5,-20,11,0
-71,-262,9976,4,-21,10,0
-89,-278,9976,3,-20,10,0
-107,-281,10006,3,-21,12,0
-107,-281,10006,3,-19,9,0
-104,-309,10001,4,-19,9,0
-111,-250,10021,3,-19,8,0
-116,-271,9958,4,-19,10,0
-69,-259,9985,4,-23,12,0
-71,-252,10028,5,-21,11,0
-78,-260,10001,5,-21,12,0
-63,-250,9987,4,-18,10,0
-76,-265,10030,3,-18,10,0
-96,-271,10012,4,-21,10,0
-96,-271,10012,4,-21,12,0
-102,-238,9980,4,-21,12,0
-89,-254,9996,3,-18,9,0
-102,-275,10016,4,-19,10,0
-113,-283,10011,6,-21,10,0
-100,-246,10016,6,-23,10,0
-83,-270,9992,5,-20,11,0
-98,-288,10001,4,-21,11,0
-99,-289,9984,3,-19,10,0
-89,-266,9996,3,-18,11,0
-89,-266,9985,3,-19,11,0
-126,-277,9985,3,-19,11,0
-119,-245,9986,2,-16,7,0
-92,-263,9984,5,-15,10,0
-86,-240,10019,6,-21,10,0
-112,-259,10000,5,-20,9,0
-93,-279,10033,4,-19,12,0
-112,-273,10011,4,-21,9,0
-94,-275,10007,5,-20,10,0
-88,-272,10009,5,-20,10,0
-95,-256,10006,5,-21,10,0
-106,-270,9982,3,-22,9,0
-106,-270,9982,3,-22,9,0
-113,-272,10007,4,-20,9,0
-88,-281,9984,5,-21,9,0
-128,-254,10003,4,-20,10,0
-141,-273,9975,3,-21,9,0
-94,-256,10024,4,-21,11,0
-94,-256,10024,4,-21,11,0
-135,-254,9973,3,-23,10,0
-142,-272,10017,3,-20,10,0
-137,-266,10021,5,-24,12,0
-117,-267,10012,5,-22,12,0
-77,-281,9993,5,-21,10,0
-100,-264,10013,4,-20,10,0
-82,-290,10016,4,-20,10,0
-92,-233,10016,4,-19,9,0
-107,-284,10011,4,-20,10,0
-107,-284,10011,4,-20,10,0
-114,-265,10004,3,-20,9,0
-122,-301,10005,4,-18,9,0
-106,-239,10028,4,-21,10,0
-96,-239,9987,6,-23,12,0
-116,-262,10027,3,-20,9,0
-111,-254,10027,3,-20,9,0
-117,-276,9992,4,-20,9,0
-112,-277,9991,5,-21,10,0
-100,-284,10023,3,-20,10,0
-100,-284,10023,3,-20,10,0
-93,-296,9999,3,-17,7,0
-118,-279,9979,3,-15,8,0
-87,-277,9991,5,-20,11,0
-113,-272,9985,5,-21,12,0
-133,-256,10015,3,-21,12,0
-94,-262,9979,3,-20,11,0
-84,-264,9991,3,-21,10,0
-98,-264,10019,3,-20,11,0
-83,-293,10001,3,-20,12,0
-83,-293,10001,3,-20,12,0
-86,-266,9975,5,-21,10,0
-96,-302,10003,4,-18,9,0
-74,-269,9982,6,-19,12,0
-108,-251,10004,6,-23,12,0
-94,-276,10011,4,-21,10,0
-108,-251,10004,5,-21,12,0
-105,-234,10004,4,-20,10,0
-117,-275,9982,5,-21,10,0
-110,-276,10010,5,-20,10,0
-110,-276,10010,5,-20,9,0
-133,-283,10003,4,-20,9,0
-129,-275,10029,1,-18,9,0
-117,-289,10009,4,-20,13,0
-129,-275,9993,4,-23,12,0
-88,-244,9991,6,-21,10,0
-107,-235,9994,6,-20,7,0
-102,-247,9979,4,-19,10,0
-94,-246,10028,4,-19,12,0
-88,-256,10010,5,-20,13,0
-88,-256,10010,3,-20,10,0
-96,-248,10006,3,-20,10,0
-87,-240,10027,2,-20,9,0
-104,-278,9980,4,-20,11,0
-104,-270,10018,6,-23,12,0
-130,-279,10022,6,-21,10,0
-93,-272,10025,4,-21,9,0
-108,-275,9996,3,-20,10,0
-78,-267,10013,3,-20,12,0
-108,-284,10028,4,-20,10,0
-108,-284,10028,5,-20,9,0
-108,-253,9990,5,-20,9,0
-99,-273,10000,3,-18,9,0
-111,-259,9994,4,-19,11,0
-118,-263,10013,4,-22,12,0
-100,-247,10005,6,-21,12,0
-114,-271,10027,5,-20,12,0
-119,-263,10019,4,-21,12,0
-87,-239,9970,3,-21,11,0
-113,-300,10018,3,-19,9,0
-113,-300,10000,4,-20,10,0
-93,-257,10000,4,-20,10,0
-111,-300,10012,4,-17,9,0
-95,-287,10035,4,-17,12,0
-71,-293,9975,5,-21,12,0
-117,-275,10017,4,-20,9,0
-104,-270,9999,4,-21,9,0
-88,-226,9999,3,-21,11,0
-135,-242,10009,4,-20,10,0
-101,-232,9985,5,-18,10,0
-120,-224,9988,4,-20,10,0
-120,-224,9988,4,-20,10,0
-88,-273,9994,4,-19,10,0
-78,-256,10017,4,-20,12,0
-108,-278,10016,5,-21,12,0
-110,-276,9976,6,-21,12,0
-99,-270,10016,4,-22,10,0
-123,-270,10031,3,-20,9,0
-120,-281,10024,4,-20,10,0
-108,-248,10000,4,-20,10,0
-122,-269,9986,3,-19,10,0
-122,-269,9986,3,-19,10,0
-110,-271,10004,1,-21,9,0
-111,-277,9997,0,-20,9,0
-133,-242,9992,5,-20,12,0
-114,-258,9973,5,-21,12,0
-77,-230,9992,5,-20,8,0
-120,-264,10027,4,-19,10,0
-125,-262,10010,4,-21,10,0
-107,-270,10005,4,-20,11,0
-123,-264,9972,5,-21,11,0
-88,-259,9994,6,-21,11,0
-88,-259,9994,6,-21,11,0
-119,-297,10029,4,-21,11,0
-122,-275,9997,3,-20,9,0
-106,-254,10010,3,-18,10,0
-136,-282,9988,4,-19,12,0
-98,-257,9980,4,-19,12,0
-98,-257,9980,4,-19,12,0
-107,-232,10015,3,-18,10,0
-86,-270,9991,1,-16,8,0
-83,-252,10021,5,-18,10,0
-118,-267,10023,5,-23,10,0
-92,-275,9988,5,-22,10,0
-89,-267,10022,4,-21,12,0
-95,-291,10011,4,-21,12,0
-83,-303,9985,4,-20,10,0
-128,-266,10015,4,-20,10,0
-128,-266,10015,4,-20,10,0
-102,-250,10012,6,-18,10,0
-112,-241,10021,3,-15,9,0
-111,-239,9976,6,-18,10,0
-129,-238,10005,6,-21,12,0
-70,-244,9984,3,-22,12,0
-101,-244,10001,4,-21,12,0
-75,-251,10000,3,-21,11,0
-105,-262,10001,5,-20,12,0
-84,-278,10013,4,-18,12,0
-84,-278,10013,5,-19,10,0
-94,-282,9986,5,-19,10,0
-68,-269,9997,4,-19,6,0
-96,-288,10005,4,-22,10,0
-113,-272,10015,6,-21,12,0
-114,-277,10000,5,-20,10,0
-99,-275,10016,4,-20,11,0
-108,-278,10022,5,-19,11,0
-105,-263,10035,5,-21,10,0
-96,-264,9984,4,-21,10,0
-96,-264,9984,5,-21,10,0
-101,-260,10017,5,-21,10,0
-107,-257,10011,3,-19,9,0
-111,-248,9994,4,-20,11,0
-95,-259,9997,6,-20,12,0
-102,-267,10035,4,-19,11,0
-66,-262,9998,4,-20,10,0
-101,-273,10016,4,-19,10,0
-104,-259,10019,3,-20,10,0
-100,-283,10003,3,-19,10,0
-100,-283,10003,4,-20,10,0
-107,-266,10006,4,-20,10,0
-120,-297,10033,3,-17,9,0
-137,-269,9974,3,-16,12,0
-133,-272,9991,4,-20,12,0
-128,-240,10022,4,-21,12,0
-118,-276,9981,3,-21,12,0
-116,-296,9996,4,-20,11,0
-108,-267,10007,4,-20,9,0
-104,-228,10005,4,-20,10,0
-101,-260,10007,4,-20,10,0
-101,-260,10007,4,-20,10,0
-86,-251,10006,3,-16,9,0
-71,-260,10025,4,-15,9,0
-131,-283,10003,5,-20,12,0
-104,-267,9984,4,-20,12,0
-123,-259,9998,4,-19,11,0
-88,-264,10006,3,-20,9,0
-96,-246,10013,4,-19,9,0
-104,-277,10016,4,-19,11,0
-100,-288,10028,5,-18,12,0
-100,-288,10028,5,-18,12,0
-108,-273,10000,1,-17,10,0
-86,-273,9994,3,-20,13,0
-92,-294,10024,6,-21,11,0
-98,-263,10010,5,-20,11,0
-114,-240,10009,5,-19,10,0
-111,-244,9987,5,-20,9,0
-110,-251,10006,5,-18,9,0
-111,-247,10027,6,-20,11,0
-111,-288,9980,4,-19,10,0
-111,-288,9980,4,-19,10,0
-70,-265,9993,3,-20,7,0
-82,-299,10023,4,-20,8,0
-99,-251,10023,6,-21,10,0
-74,-279,9996,6,-21,10,0
-80,-254,10003,4,-22,10,0
-118,-241,10010,4,-21,10,0
-100,-234,9991,4,-19,12,0
-119,-238,10013,4,-20,12,0
-108,-273,10011,4,-18,11,0
-108,-273,10011,4,-18,11,0
-120,-263,10012,5,-19,10,0
-110,-290,10004,3,-20,9,0
-105,-260,10001,5,-21,11,0
-100,-250,9996,6,-23,12,0
-106,-264,10012,4,-20,9,0
-74,-264,9998,5,-18,10,0
-86,-266,10022,4,-19,12,0
-95,-245,10033,4,-20,11,0
-102,-251,10037,6,-20,12,0
-102,-251,10037,6,-20,12,0
-101,-265,9993,4,-18,12,0
-132,-240,10006,3,-14,9,0
-124,-264,10029,4,-18,12,0
-135,-248,9999,4,-21,10,0
-89,-277,10001,6,-22,9,0
-96,-247,10011,4,-20,10,0
-94,-252,10003,4,-20,10,0
-84,-257,9982,4,-18,9,0
-94,-266,9993,5,-21,8,0
-93,-253,10011,3,-21,11,0
-93,-253,10011,3,-21,11,0
-132,-238,9981,3,-21,12,0
-108,-278,10009,4,-21,10,0
-117,-252,10000,4,-21,13,0
-113,-260,10001,4,-20,12,0
-101,-281,10001,3,-19,12,0
-101,-281,10001,4,-20,12,0
-92,-257,10018,4,-20,12,0
-101,-242,10004,2,-19,9,0
-96,-276,9978,4,-20,12,0
-100,-266,9964,6,-21,12,0
-90,-272,10012,4,-20,11,0
-92,-263,10011,5,-19,9,0
-129,-254,10011,5,-20,9,0
-116,-287,9982,5,-20,10,0
-108,-272,10007,4,-19,9,0
-108,-272,10007,4,-20,10,0
-112,-284,10029,4,-20,10,0
-113,-266,10021,3,-21,10,0
-98,-266,9984,5,-20,12,0
-122,-247,9979,5,-22,11,0
-106,-233,10013,5,-20,12,0
-90,-258,9990,5,-20,11,0
-102,-269,9984,4,-20,10,0
-87,-258,9979,4,-20,10,0
-114,-245,10013,5,-19,12,0
-114,-245,10007,4,-21,11,0
-104,-235,10007,4,-21,11,0
-83,-279,10004,3,-18,9,0
-81,-270,10001,4,-18,10,0
-92,-275,10007,4,-21,12,0
-132,-276,9974,6,-21,12,0
-95,-277,10013,4,-20,10,0
-116,-278,10012,4,-20,10,0
-113,-242,9993,5,-19,10,0
-100,-257,10031,6,-18,12,0
-74,-272,10042,5,-18,13,0
-74,-272,10042,5,-18,13,0
-110,-269,10015,3,-17,9,0
-102,-257,10033,4,-15,11,0
-111,-259,9986,3,-20,12,0
-87,-282,9993,3,-21,12,0
-114,-287,9999,4,-21,10,0
-113,-269,10001,3,-21,9,0
-105,-263,9981,4,-18,10,0
-89,-264,9980,3,-18,11,0
-114,-290,9979,4,-20,10,0
-114,-290,9979,4,-20,10,0
-106,-276,9996,3,-18,9,0
-102,-306,9999,3,-17,10,0
-98,-256,10007,5,-20,11,0
-90,-273,10023,5,-22,9,0
-102,-234,10022,4,-21,9,0
-110,-271,9998,6,-20,10,0
-92,-236,9984,5,-20,11,0
-107,-248,9985,4,-18,10,0
-101,-233,9999,4,-18,8,0
-101,-233,9999,4,-18,8,0
-86,-262,10018,3,-21,9,0
-100,-253,10017,1,-20,9,0
-100,-271,10010,5,-21,11,0
-108,-271,10012,4,-21,10,0
-107,-273,9999,4,-21,9,0
-89,-264,10003,4,-20,9,0
-94,-290,9991,7,-18,11,0
-112,-236,10001,5,-20,11,0
-110,-270,10033,4,-20,10,0
-110,-270,10033,4,-20,10,0
-86,-273,10007,3,-20,9,0
-78,-234,9992,3,-19,9,0
-111,-289,10015,4,-20,10,0
-108,-257,9994,4,-21,10,0
-114,-235,10009,4,-20,10,0
-96,-288,9990,4,-21,12,0
-62,-271,10004,5,-20,10,0
-111,-259,9987,4,-19,12,0
-98,-241,10019,4,-21,10,0
-98,-241,10019,4,-21,10,0
-87,-266,9974,3,-19,9,0
-100,-277,10037,1,-15,9,0
-81,-257,10001,4,-19,10,0
-92,-291,10010,5,-22,11,0
-100,-290,10022,6,-20,12,0
-117,-240,10009,5,-20,10,0
-87,-279,9984,4,-20,10,0
-120,-270,9997,3,-18,9,0
-107,-288,9978,4,-19,11,0
-107,-288,9978,4,-17,10,0
-102,-262,10017,3,-17,10,0
-120,-278,10012,4,-14,11,0
-92,-276,10007,5,-17,12,0
-138,-273,9973,5,-21,12,0
-130,-245,10013,4,-20,9,0
-95,-251,10021,4,-21,10,0
-100,-228,10025,4,-22,11,0
-95,-283,10009,4,-21,11,0
-92,-281,9991,3,-20,11,0
-92,-281,9991,3,-20,12,0
-89,-252,10007,3,-20,12,0
-84,-242,10001,3,-19,10,0
-94,-260,10017,5,-19,11,0
-90,-253,9987,3,-20,14,0
-99,-266,10006,4,-22,11,0
-106,-269,10005,4,-20,10,0
-124,-244,9976,4,-20,11,0
-119,-275,10004,5,-19,11,0
-130,-269,10001,4,-19,12,0
-130,-269,10001,4,-19,12,0
-126,-270,10013,4,-19,12,0
-129,-263,10009,3,-22,9,0
-92,-269,9996,3,-21,10,0
-119,-254,10005,6,-23,12,0
-84,-288,10010,6,-20,12,0
-95,-253,10017,5,-20,10,0
-126,-247,10007,5,-20,10,0
-120,-238,10035,5,-21,11,0
-75,-258,9992,4,-20,12,0
-141,-260,9996,4,-20,11,0
-141,-260,9996,4,-20,11,0
-94,-296,10005,2,-18,9,0
-108,-241,10013,4,-20,12,0
-104,-264,10005,5,-22,13,0
-100,-270,9980,5,-21,12,0
-102,-287,9987,4,-21,11,0
-102,-264,10012,4,-21,10,0
-118,-269,9990,3,-20,10,0
-87,-251,9979,4,-21,10,0
-87,-260,10025,4,-20,10,0
-87,-260,10025,4,-20,10,0
-71,-244,9993,4,-20,9,0
-84,-296,10041,3,-15,9,0
-76,-273,10025,4,-20,11,0
-112,-246,9994,5,-21,10,0
-108,-257,10027,6,-20,10,0
-98,-250,9973,5,-20,10,0
-84,-276,9981,5,-21,9,0
-102,-278,9993,4,-20,12,0
-102,-278,9993,4,-20,12,0
-70,-266,10012,2,-20,10,0
-118,-262,10003,4,-18,12,0
-90,-270,10025,6,-21,14,0
-119,-288,10004,7,-25,12,0
-101,-295,10013,6,-22,9,0
-102,-244,9988,4,-21,9,0
-90,-254,10015,4,-20,10,0
-123,-251,10010,5,-20,10,0
-92,-262,10028,4,-19,12,0
-92,-262,10028,4,-19,12,0
-135,-250,10010,3,-21,9,0
-98,-275,10019,2,-21,8,0
-107,-272,9982,4,-21,11,0
-96,-282,10006,4,-20,10,0
-106,-258,10051,5,-21,10,0
-101,-289,10025,4,-20,10,0
-96,-302,9985,2,-21,10,0
-128,-245,10004,3,-20,10,0
-124,-253,10013,4,-20,11,0
-124,-253,10013,4,-20,11,0
-98,-252,9992,3,-20,10,0
-107,-256,9984,5,-20,10,0
-102,-266,9969,6,-21,12,0
-104,-260,10004,4,-23,11,0
-118,-270,9987,5,-21,12,0
-98,-245,10029,6,-20,11,0
-110,-234,10023,6,-21,9,0
-100,-282,9984,4,-20,10,0
-112,-276,10006,5,-20,11,0
-112,-276,10006,5,-20,9,0
-84,-271,9990,3,-20,9,0
-102,-266,9984,3,-16,7,0
-93,-291,10003,4,-19,11,0
-84,-248,9981,6,-22,10,0
-101,-248,10010,6,-21,11,0
-94,-240,10023,5,-20,9,0
-108,-272,10017,4,-20,11,0
-65,-262,10012,5,-20,11,0
-117,-258,10025,3,-19,10,0
-117,-258,10025,4,-18,10,0
-114,-270,9998,4,-18,10,0
-88,-283,9999,4,-17,9,0
-145,-281,9997,4,-19,11,0
-105,-246,9996,4,-20,11,0
-94,-263,10011,5,-21,9,0
-113,-271,10018,5,-20,11,0
-89,-252,9994,4,-19,12,0
-118,-258,9979,4,-21,12,0
-90,-284,10004,3,-21,12,0
-90,-284,10004,3,-22,10,0
-75,-282,9993,3,-22,10,0
-119,-258,9984,4,-19,8,0
-77,-253,9994,4,-19,10,0
-89,-233,10000,3,-23,10,0
-63,-251,9998,5,-21,10,0
-90,-251,9999,4,-20,11,0
-94,-266,9996,4,-21,10,0
-101,-252,10030,3,-20,11,0
-101,-259,10004,4,-20,12,0
-102,-275,9997,2,-20,10,0
-102,-275,9997,2,-20,10,0
-118,-267,10009,2,-18,7,0
-100,-269,9999,5,-20,10,0
-93,-238,9997,4,-21,10,0
-84,-253,10003,4,-21,10,0
-89,-242,10005,4,-20,11,0
-81,-276,9991,4,-20,11,0
-104,-228,10003,3,-20,10,0
-101,-262,10023,5,-20,12,0
-101,-262,10023,5,-20,12,0
-102,-246,9992,3,-19,9,0
-147,-259,10018,5,-19,8,0
-129,-294,10003,6,-21,9,0
-98,-300,9985,4,-20,9,0
-138,-278,10006,4,-21,8,0
-116,-282,9968,4,-20,9,0
-84,-240,10015,4,-18,11,0
-107,-275,9993,4,-19,10,0
-110,-269,10005,4,-20,9,0
-110,-269,10005,4,-20,9,0
-105,-258,9993,3,-20,10,0
-87,-245,10018,3,-17,11,0
-94,-232,9999,6,-21,12,0
-107,-258,10007,4,-23,12,0
-64,-206,10024,3,-21,10,0
-88,-248,9982,4,-21,10,0
-95,-241,9998,4,-21,9,0
-96,-269,10017,4,-20,10,0
-120,-263,10017,5,-20,10,0
-120,-263,10017,5,-20,10,0
-104,-278,9997,3,-18,9,0
-93,-265,9978,3,-17,9,0
-102,-290,10024,4,-20,12,0
-93,-250,9976,5,-21,11,0
-102,-270,10012,4,-20,11,0
-81,-256,9994,5,-18,12,0
-105,-227,9999,5,-20,12,0
-128,-242,10007,5,-20,11,0
-111,-242,10022,5,-20,10,0
-111,-242,10022,5,-20,10,0
-94,-251,10019,4,-21,9,0
-94,-265,9998,2,-20,7,0
-108,-288,9966,4,-21,10,0
-92,-285,9984,4,-20,7,0
-100,-267,10011,4,-20,8,0
-123,-276,10018,3,-19,11,0
-107,-279,10024,3,-20,10,0
-84,-270,10004,5,-21,11,0
-86,-288,9987,5,-21,12,0
-86,-288,9987,5,-21,12,0
-106,-281,9992,4,-21,9,0
-104,-262,10001,3,-17,9,0
-132,-263,10015,4,-20,13,0
-107,-253,10001,4,-22,9,0
-119,-239,9962,4,-21,9,0
-99,-263,9988,5,-19,11,0
-119,-245,10004,4,-20,9,0
-90,-265,9994,4,-19,10,0
-104,-283,10000,4,-21,10,0
-104,-283,10000,4,-20,10,0
-113,-260,10030,4,-20,10,0
-106,-281,9990,3,-17,9,0
-117,-263,10039,4,-20,10,0
-106,-272,10017,6,-21,12,0
-111,-248,9982,4,-21,12,0
-72,-258,10003,3,-20,9,0
-107,-287,9975,3,-21,10,0
-94,-289,9972,3,-20,10,0
-107,-277,9979,6,-21,10,0
-107,-277,9979,3,-20,9,0
-126,-257,10000,3,-20,9,0
-112,-241,10012,3,-16,9,0
-104,-232,10010,4,-17,10,0
-93,-258,9990,4,-21,10,0
-93,-272,9987,5,-20,11,0
-62,-248,10045,5,-20,10,0
-88,-272,10016,3,-20,12,0
-87,-296,9974,4,-20,12,0
-93,-250,9997,4,-19,10,0
-93,-250,9997,3,-20,9,0
-81,-265,9987,3,-20,9,0
-74,-244,10009,1,-20,9,0
-81,-244,10012,5,-20,12,0
-142,-256,9984,5,-21,10,0
-159,-283,9968,4,-20,10,0
-99,-276,10016,3,-20,9,0
-105,-313,10011,3,-20,9,0
-129,-291,10003,5,-18,11,0
-102,-285,10018,4,-20,10,0
-78,-259,10006,4,-18,9,0
-78,-259,10006,4,-18,9,0
-107,-282,10003,3,-20,9,0
-93,-259,9982,4,-20,11,0
-82,-245,10015,7,-24,12,0
-104,-251,9981,6,-20,12,0
-64,-229,10004,5,-19,11,0
-78,-270,10000,3,-20,12,0
-84,-278,10001,4,-20,12,0
-101,-282,10036,2,-20,9,0
-106,-290,10001,4,-21,10,0
-106,-290,10001,4,-21,10,0
-135,-276,9990,3,-18,10,0
-132,-287,9987,4,-19,9,0
-105,-279,9990,6,-21,12,0
-108,-272,10021,7,-24,10,0
-86,-270,10010,4,-20,9,0
-92,-260,10006,4,-20,11,0
-70,-290,10006,4,-20,12,0
-117,-284,10021,4,-20,11,0
-118,-284,10005,3,-20,11,0
-118,-284,10005,3,-20,11,0
-111,-291,10000,3,-18,10,0
-105,-266,9987,4,-15,10,0
-96,-265,9990,6,-20,10,0
-92,-258,10000,5,-21,10,0
-130,-267,9991,4,-20,12,0
-113,-245,10016,3,-21,10,0
-98,-271,10010,3,-21,10,0
-117,-272,9997,4,-20,10,0
-120,-288,10006,4,-21,12,0
-120,-288,10006,4,-21,12,0
-74,-263,10009,4,-20,10,0
-106,-239,10025,4,-17,10,0
-129,-281,10006,5,-21,10,0
-86,-264,10001,7,-24,12,0
-128,-239,10012,4,-21,10,0
-117,-247,9984,4,-21,9,0
-112,-247,10024,4,-21,10,0
-148,-254,10005,4,-20,10,0
-68,-282,10007,6,-21,10,0
-68,-282,10007,6,-21,10,0
-86,-273,9998,4,-20,10,0
-112,-277,10001,4,-21,10,0
-107,-281,9981,4,-20,10,0
-105,-251,10004,4,-21,11,0
-96,-256,10016,3,-21,9,0
-120,-290,10011,3,-19,10,0
-120,-290,10011,3,-19,10,0
-106,-278,10018,4,-19,10,0
-117,-254,10015,3,-20,10,0
-100,-251,10009,4,-18,9,0
-90,-247,10004,5,-21,10,0
-90,-270,10003,4,-20,10,0
-122,-256,9996,4,-20,9,0
-88,-254,10022,4,-20,9,0
-120,-233,9992,6,-20,12,0
-102,-273,10024,4,-19,11,0
-102,-273,10024,4,-19,14,0
-87,-282,10003,4,-19,14,0
-89,-295,9997,3,-16,10,0
-87,-272,10012,4,-18,10,0
-118,-269,10019,5,-21,14,0
-95,-308,9994,3,-22,10,0
-122,-290,10010,4,-20,10,0
-119,-277,10024,4,-18,12,0
-132,-248,10000,6,-18,10,0
-99,-239,9976,4,-20,12,0
-99,-239,9976,4,-20,12,0
-113,-251,10003,4,-20,12,0
-107,-260,9960,2,-18,10,0
-65,-246,9981,4,-18,11,0
-96,-264,10003,4,-22,11,0
-75,-301,10010,5,-21,9,0
-98,-277,10000,4,-20,10,0
-87,-251,10011,4,-20,10,0
-110,-245,10018,3,-21,9,0
-96,-256,10024,3,-21,9,0
-96,-256,10027,4,-20,10,0
-82,-273,10027,4,-20,10,0
-93,-257,9988,2,-17,9,0
-123,-271,10006,3,-18,10,0
-128,-273,9996,5,-18,12,0
-114,-265,10036,5,-20,12,0
-98,-262,9988,4,-21,10,0
-102,-253,10006,4,-20,9,0
-81,-242,10003,4,-18,10,0
-102,-236,9984,3,-20,9,0
-101,-245,10005,3,-18,10,0
-101,-245,10005,3,-18,10,0
-68,-297,10006,1,-20,6,0
-108,-240,10012,3,-20,9,0
-95,-266,9996,6,-23,12,0
-106,-269,10007,5,-21,11,0
-107,-284,10019,4,-19,10,0
-104,-270,10017,6,-21,10,0
-93,-258,10031,4,-20,10,0
-105,-289,9988,3,-19,9,0
-111,-265,9994,4,-21,9,0
-111,-265,9994,4,-21,9,0
-98,-252,9972,3,-20,9,0
-92,-262,10034,4,-18,10,0
-102,-241,10012,4,-21,10,0
-108,-263,10004,6,-23,13,0
-83,-259,10016,5,-21,12,0
-76,-259,9957,4,-20,11,0
-123,-300,9966,4,-19,10,0
-89,-248,10010,4,-20,6,0
-117,-245,9985,4,-17,9,0
-117,-245,9985,4,-17,9,0
-90,-278,10033,4,-18,9,0
-102,-279,10010,5,-15,12,0
-92,-266,10010,6,-20,14,0
-76,-276,9999,4,-21,14,0
-70,-259,9988,4,-20,12,0
-130,-245,10012,4,-21,10,0
-87,-248,10015,4,-22,9,0
-104,-235,10009,3,-21,11,0
-133,-236,10027,4,-20,12,0
-133,-236,10027,4,-20,12,0
-116,-264,9979,4,-20,9,0
-78,-245,10019,2,-16,7,0
-93,-262,10009,4,-16,9,0
-88,-248,10012,5,-21,12,0
-107,-287,9967,3,-21,10,0
-98,-256,10001,4,-21,12,0
-110,-251,9978,4,-20,10,0
-117,-281,9990,6,-22,11,0
-78,-266,10009,5,-21,9,0
-78,-266,10009,5,-21,9,0
-88,-259,9997,3,-20,6,0
-93,-270,9999,3,-16,7,0
-123,-272,10018,4,-20,12,0
-102,-254,9997,5,-23,13,0
-87,-250,10013,5,-20,10,0
-98,-252,9955,3,-20,10,0
-107,-242,9996,6,-21,11,0
-83,-235,10023,5,-21,10,0
-126,-248,9986,3,-20,10,0
-126,-248,9986,3,-19,9,0
-99,-256,10013,4,-19,9,0
-105,-246,10010,4,-19,11,0
-76,-272,9996,4,-21,13,0
-110,-301,10013,4,-23,10,0
-96,-262,10007,4,-22,8,0
-122,-260,9999,4,-21,10,0
-118,-256,9999,4,-20,10,0
-108,-281,10007,5,-21,11,0
-122,-245,10029,3,-20,11,0
-122,-245,10029,3,-20,10,0
-88,-228,9992,3,-20,10,0
-111,-262,10029,3,-17,8,0
-111,-257,10019,5,-20,11,0
-82,-245,10013,3,-21,12,0
-84,-279,10010,4,-20,14,0
-98,-283,10013,5,-20,10,0
-101,-266,10012,5,-21,12,0
-84,-260,10015,4,-20,10,0
-106,-291,10004,4,-18,9,0
-106,-291,10004,3,-20,10,0
-120,-252,9999,3,-20,10,0
-90,-269,9984,3,-17,12,0
-102,-265,10006,3,-17,9,0
-139,-270,10005,6,-22,11,0
-89,-260,10041,4,-21,11,0
-130,-279,9987,4,-21,7,0
-124,-271,9972,2,-21,7,0
-107,-256,9979,3,-20,9,0
-99,-259,9999,3,-20,10,0
-87,-246,9999,4,-20,12,0
-87,-246,9999,4,-20,12,0
-87,-267,9979,4,-17,9,0
-113,-253,10036,3,-19,10,0
-95,-254,10000,4,-20,10,0
-90,-263,9997,5,-21,10,0
-84,-257,9998,4,-19,10,0
-77,-269,9981,3,-18,9,0
-114,-258,9999,4,-20,12,0
-126,-240,10025,5,-20,12,0
-118,-265,10049,4,-19,11,0
-118,-265,10049,4,-19,11,0
-104,-266,10011,3,-20,9,0
-113,-275,9990,5,-20,11,0
-106,-244,10001,7,-23,14,0
-87,-236,10003,6,-21,13,0
-81,-284,9992,4,-21,10,0
-102,-240,10022,5,-20,11,0
-89,-248,10006,4,-20,10,0
-106,-257,10043,3,-20,10,0
-128,-260,10012,4,-20,10,0
-128,-260,10012,4,-20,10,0
-118,-256,9996,3,-18,8,0
-116,-272,10023,3,-17,10,0
-116,-260,10013,4,-17,12,0
-93,-247,10049,5,-21,12,0
-119,-248,9984,4,-20,11,0
-78,-236,10013,5,-20,9,0
-112,-287,9990,6,-20,12,0
-117,-277,10003,6,-21,11,0
-76,-275,9986,5,-21,11,0
-76,-275,9986,5,-21,11,0
-113,-238,10001,2,-18,7,0
-111,-263,10023,3,-15,10,0
-131,-247,10024,6,-22,11,0
-110,-252,9998,4,-21,10,0
-110,-256,10006,4,-19,9,0
-99,-244,10006,3,-20,10,0
-61,-240,10033,4,-20,10,0
-147,-291,10010,3,-20,12,0
-83,-271,10001,3,-21,10,0
-83,-271,10001,3,-21,10,0
-112,-296,10015,5,-20,12,0
-90,-293,9972,4,-17,10,0
-112,-270,10021,6,-20,9,0
-81,-260,9999,5,-22,9,0
-125,-266,10003,3,-20,11,0
-80,-282,10009,4,-20,12,0
-99,-248,10006,4,-18,14,0
-62,-264,10013,4,-20,12,0
-100,-269,10000,4,-21,12,0
-100,-269,10000,4,-21,12,0
-83,-236,10015,3,-21,11,0
-125,-257,10035,1,-18,10,0
-86,-276,10007,4,-20,11,0
-122,-278,9998,5,-22,12,0
-89,-279,9996,3,-20,12,0
-78,-271,10011,4,-18,9,0
-106,-253,10010,4,-18,9,0
-130,-252,9996,4,-20,9,0
-130,-252,9996,6,-20,9,0
-107,-252,10012,6,-20,9,0
-124,-247,10009,5,-20,9,0
-108,-247,10021,4,-20,12,0
-94,-256,9999,4,-21,11,0
-94,-250,10015,3,-21,10,0
-101,-262,9973,3,-20,10,0
-88,-271,10004,3,-20,9,0
-74,-287,9988,5,-20,11,0
-47,-258,10022,5,-21,9,0
-47,-258,10022,4,-19,10,0
-114,-291,10009,4,-19,10,0
-87,-258,10036,4,-20,8,0
-98,-264,10029,5,-20,11,0
-112,-271,10009,4,-21,12,0
-96,-291,9979,4,-21,10,0
-84,-279,9981,3,-21,9,0
-132,-295,10031,3,-20,10,0
-105,-275,9975,3,-19,10,0
-116,-284,9996,6,-20,12,0
-116,-284,10005,5,-20,12,0
-105,-229,10005,5,-20,12,0
-105,-239,10025,3,-16,10,0
-89,-234,10003,4,-17,12,0
-64,-273,10009,6,-23,11,0
-87,-258,10012,6,-22,12,0
-86,-254,10039,4,-20,11,0
-83,-247,10010,3,-20,9,0
-86,-283,9985,4,-21,10,0
-100,-271,10004,3,-20,9,0
-114,-263,9992,3,-21,10,0
-114,-263,9992,3,-21,10,0
-117,-273,9991,2,-20,6,0
-126,-239,10022,3,-19,10,0
-90,-241,9961,5,-18,11,0
-107,-242,10000,6,-21,12,0
-78,-252,10012,5,-18,11,0
-116,-273,10012,5,-20,10,0
-122,-246,10006,3,-21,8,0
-87,-257,10011,6,-20,10,0
-105,-251,9979,6,-18,11,0
-105,-251,9979,6,-18,11,0
-119,-270,9998,2,-20,10,0
-105,-273,10022,1,-19,9,0
-96,-272,10016,4,-22,10,0
-108,-241,10010,4,-21,11,0
-92,-282,10025,4,-20,10,0
-108,-270,10031,4,-18,10,0
-110,-278,9994,6,-20,10,0
-112,-269,9981,4,-21,11,0
-113,-270,9991,4,-21,12,0
-113,-270,9991,4,-19,12,0
-110,-257,10031,4,-19,12,0
-96,-247,10003,5,-17,12,0
-112,-242,10022,5,-21,13,0
-130,-242,9998,6,-22,14,0
-106,-256,10016,5,-20,10,0
-101,-258,9986,4,-20,11,0
-110,-230,10024,4,-19,10,0
-124,-246,9997,4,-19,9,0
-95,-250,10006,6,-20,11,0
-95,-250,10006,6,-20,11,0
-108,-252,10015,3,-18,9,0
-100,-277,10011,3,-15,13,0
-94,-290,9986,7,-20,13,0
-93,-281,10034,6,-21,12,0
-84,-246,9974,4,-21,12,0
-88,-293,10013,3,-20,12,0
-122,-240,9996,4,-18,9,0
-128,-306,9993,4,-20,10,0
-94,-264,10013,6,-21,10,0
-94,-264,10013,6,-21,10,0
-112,-252,10009,4,-19,9,0
-110,-230,9976,3,-15,9,0
-108,-242,9986,3,-16,7,0
-114,-259,9999,4,-20,12,0
-78,-239,10036,4,-20,14,0
-76,-288,10029,4,-20,10,0
-55,-294,10005,3,-19,10,0
-96,-278,9996,6,-20,11,0
-129,-291,10003,4,-19,10,0
-129,-291,10003,4,-19,9,0
-87,-285,9992,3,-21,9,0
-136,-257,10006,4,-21,9,0
-117,-273,10001,5,-19,9,0
-126,-254,9985,6,-21,11,0
-100,-254,10006,3,-20,11,0
-113,-293,10001,4,-19,12,0
-81,-276,10006,4,-20,11,0
-100,-265,10006,5,-19,12,0
-82,-257,9990,4,-20,10,0
-83,-276,10013,4,-20,12,0
-83,-276,10013,4,-20,12,0
-105,-269,10016,4,-16,12,0
-125,-264,9999,5,-18,12,0
-101,-287,9980,6,-21,13,0
-101,-247,9969,4,-21,10,0
-141,-284,10022,4,-21,10,0
-131,-291,9987,3,-20,11,0
-104,-288,10009,4,-20,13,0
-132,-306,10009,5,-20,10,0
-132,-306,10009,4,-20,10,0
-110,-260,10006,4,-20,10,0
-116,-235,10009,3,-15,10,0
-86,-250,9990,4,-18,10,0
-100,-248,10004,4,-20,7,0
-94,-248,10019,4,-18,12,0
-101,-236,10034,4,-20,12,0
-98,-288,9999,4,-18,12,0
-114,-265,9969,3,-19,10,0
-120,-290,9999,4,-21,11,0
-120,-290,10006,4,-21,9,0
-130,-276,10006,4,-21,9,0
-113,-262,10000,4,-17,11,0
-132,-258,10001,1,-18,7,0
-117,-260,10018,4,-23,10,0
-124,-256,10009,5,-20,10,0
-105,-240,10015,6,-20,12,0
-117,-245,9996,4,-21,8,0
-74,-282,10029,4,-20,11,0
-87,-250,9986,4,-20,12,0
-106,-257,10003,4,-19,9,0
-106,-257,10003,4,-18,9,0
-93,-270,10011,4,-18,9,0
-117,-250,10022,5,-17,14,0
-147,-258,10021,6,-21,10,0
-89,-275,9992,4,-21,10,0
-116,-257,9999,5,-18,12,0
-99,-252,10015,5,-21,10,0
-88,-262,9986,3,-19,10,0
-81,-281,9990,4,-21,14,0
-99,-275,9980,2,-21,8,0
-99,-275,9980,2,-21,8,0
-101,-260,9993,3,-20,8,0
-117,-236,10011,4,-20,11,0
-99,-266,10023,7,-23,14,0
-135,-233,10013,6,-19,12,0
-105,-244,10034,5,-19,10,0
-90,-258,9990,4,-18,10,0
-101,-259,10023,2,-18,9,0
-107,-263,9991,3,-20,8,0
-83,-263,10005,3,-20,8,0
-99,-273,10006,4,-20,10,0
-95,-285,10015,4,-19,10,0
-112,-257,10009,6,-22,10,0
-80,-287,10017,4,-21,10,0
-101,-257,10007,4,-19,10,0
-56,-264,9990,3,-20,12,0
-56,-264,9990,3,-20,12,0
-126,-253,10033,3,-18,9,0
-117,-269,9992,3,-18,9,0
-90,-259,10005,4,-23,11,0
-139,-241,9987,3,-20,10,0
-83,-271,9992,4,-20,12,0
-135,-247,10003,4,-21,10,0
-101,-260,10022,5,-21,10,0
-122,-265,10017,5,-20,12,0
-113,-272,10013,4,-20,12,0
-113,-272,10013,3,-21,7,0
-100,-272,10024,3,-21,7,0
-113,-301,9988,3,-17,11,0
-92,-251,9988,6,-18,11,0
-112,-266,10005,6,-20,12,0
-114,-276,9994,5,-18,9,0
-137,-260,10001,5,-18,10,0
-112,-256,9991,4,-20,13,0
-71,-272,10019,4,-20,9,0
-92,-247,10033,3,-19,9,0
-92,-247,10033,3,-18,8,0
-90,-264,10025,4,-18,8,0
-105,-269,9997,3,-17,9,0
-101,-267,9999,6,-20,14,0
-89,-246,10003,7,-22,13,0
-159,-266,10000,4,-21,12,0
-111,-296,10017,4,-19,10,0
-114,-244,9988,4,-21,9,0
-150,-273,10033,3,-20,7,0
-120,-269,9984,3,-21,11,0
-120,-269,9984,4,-21,11,0
-105,-258,9980,4,-21,11,0
-119,-262,10027,3,-20,10,0
-113,-262,10053,4,-18,12,0
-104,-264,9990,6,-21,12,0
-95,-252,10003,4,-17,13,0
-95,-252,10003,4,-17,13,0
-111,-250,10001,4,-20,13,0
-92,-266,10021,5,-20,11,0
-92,-266,10013,4,-20,9,0
-98,-246,10013,5,-18,14,0
-80,-264,9987,5,-18,14,0
-113,-238,9985,4,-20,12,0
-98,-313,9999,4,-21,12,0
-84,-271,10027,4,-21,11,0
-96,-273,10023,3,-20,7,0
-102,-269,10013,3,-20,9,0
-86,-282,9974,3,-20,10,0
-82,-267,10001,4,-19,9,0
-130,-258,10004,5,-20,8,0
-130,-258,10004,5,-20,8,0
-107,-253,9996,1,-20,8,0
-94,-248,10001,1,-19,9,0
-112,-223,10001,5,-23,12,0
-112,-260,9988,4,-21,10,0
-108,-256,10012,4,-21,13,0
-87,-270,10010,5,-20,11,0
-122,-234,9990,5,-20,11,0
-92,-269,10027,4,-20,10,0
-74,-270,10029,3,-20,12,0
-74,-270,10029,3,-20,12,0
-131,-272,10030,2,-20,10,0
-110,-308,10003,3,-18,7,0
-138,-246,10017,4,-20,8,0
-133,-282,10005,4,-21,11,0
-96,-248,10000,4,-20,9,0
-122,-264,10012,4,-21,8,0
-99,-222,9994,3,-20,7,0
-90,-263,9980,5,-20,9,0
-75,-235,10005,4,-18,10,0
-75,-235,10005,4,-18,10,0
-55,-267,10015,2,-20,8,0
-96,-257,10006,1,-20,7,0
-111,-259,10004,4,-21,9,0
-128,-252,10012,4,-21,12,0
-129,-271,9998,4,-21,12,0
-101,-266,10001,4,-19,13,0
-94,-285,10010,4,-20,10,0
-69,-285,9991,4,-19,10,0
-82,-262,10001,4,-20,11,0
-96,-250,10007,3,-19,12,0
-96,-250,10007,3,-19,12,0
-122,-265,10022,4,-17,12,0
-99,-259,10013,6,-20,12,0
-102,-265,10004,4,-21,10,0
-131,-259,10029,3,-18,10,0
-114,-265,10011,5,-19,9,0
-89,-262,10042,5,-19,10,0
-105,-256,10003,4,-21,10,0
-95,-271,10007,4,-19,8,0
-95,-271,10007,4,-19,8,0
-117,-264,9984,4,-19,9,0
-96,-308,9987,3,-14,9,0
-94,-260,10018,7,-18,12,0
-106,-257,10004,4,-19,7,0
-52,-242,10034,5,-20,10,0
-112,-269,10010,4,-20,10,0
-94,-309,10012,4,-21,10,0
-98,-248,10012,4,-19,9,0
-98,-248,10012,4,-19,9,0
-89,-256,10001,6,-22,12,0
-93,-232,10012,6,-21,12,0
-99,-244,9999,4,-20,11,0
-77,-266,10006,3,-20,9,0
-83,-247,10019,4,-20,12,0
-76,-295,9969,5,-19,10,0
-76,-295,9969,5,-20,10,0
-111,-257,9994,5,-20,10,0
-72,-283,10006,3,-18,9,0
-104,-263,10000,5,-21,10,0
-99,-273,10001,5,-23,12,0
-99,-258,10015,4,-21,14,0
-125,-250,9988,5,-19,10,0
-136,-254,9996,4,-20,9,0
-94,-284,9985,5,-20,12,0
-90,-253,10007,4,-20,10,0
-110,-248,9987,4,-19,7,0
-110,-248,9987,4,-19,7,0
-113,-234,9991,3,-17,7,0
-139,-241,10001,4,-18,12,0
-106,-235,9991,4,-22,10,0
-104,-253,10007,6,-21,9,0
-107,-248,10005,5,-20,13,0
-98,-257,10029,5,-20,14,0
-108,-265,10003,5,-21,10,0
-105,-256,10000,3,-20,9,0
-120,-271,9990,4,-20,9,0
-120,-271,9990,4,-20,9,0
-133,-272,10019,4,-18,7,0
-120,-287,9968,5,-19,10,0
-142,-279,10018,6,-22,11,0
-92,-233,10010,5,-21,11,0
-98,-241,9998,4,-21,10,0
-93,-247,9990,4,-21,10,0
-116,-246,10021,4,-20,7,0
-94,-258,10039,4,-20,11,0
-100,-271,9992,4,-20,10,0
-100,-271,9992,4,-20,10,0
-101,-276,10004,3,-17,7,0
-104,-269,10000,3,-14,10,0
-96,-251,10013,5,-20,11,0
-132,-270,10022,6,-21,10,0
-106,-262,9984,3,-20,10,0
-76,-289,10024,5,-20,12,0
-110,-247,10017,4,-21,10,0
-130,-259,9998,4,-20,9,0
-88,-278,9997,3,-20,10,0
-88,-278,9997,3,-18,10,0
-108,-279,10003,3,-18,10,0
-76,-245,9991,3,-17,10,0
-111,-246,9992,4,-21,11,0
-105,-289,9980,6,-21,14,0
-123,-232,10041,5,-19,10,0
-94,-244,10001,4,-20,9,0
-113,-258,10006,5,-19,10,0
-96,-246,10016,5,-18,13,0
-123,-282,9986,5,-18,12,0
-123,-282,9986,5,-18,12,0
-80,-269,9994,3,-21,9,0
-116,-296,10029,1,-20,10,0
-117,-282,9991,3,-23,12,0
-118,-265,10000,5,-22,12,0
-95,-250,10018,6,-21,11,0
-83,-262,9992,3,-20,9,0
-69,-242,10012,4,-20,8,0
-117,-278,10023,5,-18,10,0
-111,-264,9992,5,-19,11,0
-111,-264,9992,5,-19,11,0
-133,-281,10019,4,-20,9,0
-95,-246,9994,1,-17,8,0
-105,-264,10001,2,-19,10,0
-132,-257,10023,4,-22,12,0
-83,-263,9980,4,-21,12,0
-94,-263,10010,5,-21,11,0
-104,-270,10013,6,-19,11,0
-98,-270,10000,4,-20,12,0
-111,-293,10035,4,-20,11,0
-111,-293,10035,4,-20,11,0
-117,-300,10001,4,-21,11,0
-106,-294,10039,2,-17,8,0
-113,-281,10039,6,-19,12,0
-111,-273,9994,7,-20,12,0
-119,-272,10012,6,-20,14,0
-78,-263,9972,5,-18,10,0
-124,-256,9988,5,-20,10,0
-100,-239,10000,3,-20,11,0
-104,-253,10006,4,-19,13,0
-104,-253,10006,3,-20,10,0
-101,-247,9994,3,-20,10,0
-102,-284,9991,3,-17,10,0
-66,-297,10024,4,-20,10,0
-83,-260,9975,4,-20,11,0
-71,-277,9984,5,-21,12,0
-123,-263,10010,5,-19,10,0
-75,-282,9963,4,-20,10,0
-75,-252,10007,5,-20,14,0
-108,-239,9976,3,-18,12,0
-108,-239,9976,4,-20,9,0
-149,-276,9975,4,-20,9,0
-106,-254,9999,2,-18,8,0
-98,-277,10012,4,-20,11,0
-114,-262,10015,5,-22,12,0
-93,-296,10003,5,-20,12,0
-111,-265,10013,5,-19,12,0
-111,-244,9981,4,-21,10,0
-86,-260,10054,3,-20,8,0
-94,-266,10010,4,-20,11,0
-94,-266,10010,4,-20,10,0
-93,-253,10037,4,-20,10,0
-92,-248,10015,2,-18,7,0
-120,-269,9992,3,-18,10,0
-80,-285,9972,6,-23,14,0
-90,-275,10007,6,-20,12,0
-122,-293,9998,5,-22,10,0
-116,-276,10046,4,-20,11,0
-118,-277,9999,5,-21,10,0
-94,-257,10007,4,-20,10,0
-72,-233,10009,4,-19,12,0
-72,-233,10009,4,-19,12,0
-101,-289,10006,3,-16,6,0
-113,-233,10007,4,-17,12,0
-111,-238,10016,6,-22,12,0
-92,-262,9991,5,-23,12,0
-99,-271,9985,4,-21,10,0
-65,-266,10010,3,-20,11,0
-133,-277,10003,4,-18,12,0
-122,-277,10004,4,-20,10,0
-95,-278,9992,3,-20,10,0
-95,-278,9992,3,-20,10,0
-118,-246,10006,2,-20,10,0
-102,-270,9997,4,-16,10,0
-131,-287,9993,5,-21,9,0
-87,-287,10017,4,-21,12,0
-112,-257,10022,4,-18,12,0
-113,-241,9987,4,-18,11,0
-64,-257,10019,4,-21,12,0
-133,-269,9990,3,-21,10,0
-94,-260,10009,3,-20,11,0
-94,-260,10009,3,-20,11,0
-124,-251,9999,2,-19,10,0
-87,-271,9994,1,-18,7,0
-118,-265,10004,6,-20,12,0
-102,-296,9967,6,-22,12,0
-117,-278,10030,5,-20,11,0
-80,-294,10004,4,-20,10,0
-93,-266,10001,3,-21,11,0
-108,-275,9967,4,-20,11,0
-102,-257,10003,4,-20,10,0
-102,-257,10003,4,-20,10,0
-78,-281,10036,2,-20,8,0
-124,-251,10017,3,-19,10,0
-107,-262,10029,5,-21,11,0
-87,-257,10017,3,-20,10,0
-105,-216,10027,6,-20,10,0
-92,-254,10012,4,-21,12,0
-90,-264,10019,4,-20,10,0
-106,-270,10004,4,-19,9,0
-110,-260,10009,4,-20,11,0
-110,-260,10009,4,-20,11,0
-101,-256,10003,1,-19,9,0
-98,-257,9990,3,-17,9,0
-116,-271,10033,4,-20,12,0
-88,-264,10021,4,-23,13,0
-84,-278,10022,3,-20,12,0
-105,-283,10013,4,-18,12,0
-112,-272,10006,4,-20,10,0
-110,-288,9979,4,-20,12,0
-105,-270,10015,4,-20,11,0
-105,-270,10015,4,-20,11,0
-113,-260,9972,3,-21,9,0
-111,-260,10005,4,-16,8,0
-108,-265,10013,6,-17,14,0
-124,-250,10007,5,-22,12,0
-110,-244,9982,6,-20,10,0
-84,-254,10004,4,-21,10,0
-56,-263,9987,5,-20,12,0
-98,-266,10003,3,-20,10,0
-147,-266,9997,5,-21,12,0
-147,-266,9997,4,-20,9,0
-122,-281,9987,4,-20,9,0
-99,-244,9988,3,-17,10,0
-123,-271,9996,2,-18,9,0
-123,-309,10001,5,-21,10,0
-156,-270,10007,5,-20,12,0
-114,-259,10016,4,-20,9,0
-118,-247,9998,3,-20,10,0
-68,-272,10011,4,-18,11,0
-130,-278,10045,4,-20,12,0
-130,-278,10045,4,-21,7,0
-96,-273,9993,4,-21,7,0
-111,-253,9987,2,-20,7,0
-105,-281,10011,3,-18,10,0
-111,-267,9993,5,-21,10,0
-102,-241,10012,6,-20,8,0
-117,-254,9998,4,-22,8,0
-108,-248,10022,3,-21,9,0
-61,-236,10023,3,-19,8,0
-88,-267,10030,4,-20,12,0
-88,-267,10004,4,-20,10,0
-117,-271,10004,4,-20,10,0
-107,-277,10006,3,-18,10,0
-113,-273,9997,3,-18,10,0
-111,-275,9997,5,-21,11,0
-108,-271,9985,5,-21,10,0
-102,-271,9981,4,-21,9,0
-99,-227,10017,4,-20,10,0
-108,-266,10005,5,-21,12,0
-122,-253,10019,5,-21,9,0
-98,-260,9987,4,-20,11,0
-98,-260,9987,4,-20,11,0
-92,-253,9988,2,-18,9,0
-69,-277,10003,3,-17,9,0
-117,-284,10031,6,-20,10,0
-99,-272,10028,6,-20,10,0
-107,-291,9988,4,-20,8,0
-99,-267,10009,5,-20,12,0
-98,-247,10007,3,-19,9,0
-98,-247,10007,3,-19,9,0
-117,-262,10018,6,-21,13,0
-95,-260,9979,5,-20,13,0
-120,-269,9993,4,-19,12,0
-81,-293,10030,4,-20,10,0
-89,-282,10018,3,-20,12,0
-117,-241,10007,6,-18,11,0
-69,-288,10000,6,-20,11,0
-69,-288,10000,6,-20,11,0
-68,-269,10005,3,-19,10,0
-101,-278,10013,2,-18,11,0
-129,-293,10000,5,-21,11,0
-82,-254,10013,6,-22,10,0
-101,-267,10023,4,-20,9,0
-92,-281,9979,4,-19,9,0
-87,-227,10006,6,-20,11,0
-92,-267,10007,4,-20,10,0
-108,-259,10005,3,-20,12,0
-108,-259,10005,3,-20,12,0
-96,-253,9992,3,-18,10,0
-118,-266,10015,3,-19,9,0
-101,-247,10007,4,-22,12,0
-90,-245,9982,5,-22,12,0
-90,-236,10018,4,-21,10,0
-69,-233,10012,4,-20,10,0
-111,-258,10027,5,-21,12,0
-101,-264,9993,4,-19,10,0
-88,-282,9982,5,-18,12,0
-88,-282,9982,5,-18,12,0
-92,-270,10041,4,-20,9,0
-49,-282,9993,3,-19,9,0
-74,-272,10015,4,-20,11,0
-131,-266,10007,6,-23,12,0
-119,-278,10004,4,-21,11,0
-98,-270,10031,4,-20,10,0
-93,-242,9997,3,-18,10,0
-114,-248,9997,3,-19,10,0
-116,-267,9988,5,-19,10,0
-116,-267,9988,5,-20,12,0
-111,-264,10036,3,-20,12,0
-78,-258,10019,3,-15,11,0
-119,-253,10017,5,-17,14,0
-95,-269,9997,4,-22,13,0
-68,-267,10016,5,-21,13,0
-108,-257,10007,6,-21,10,0
-86,-278,9987,5,-21,10,0
-111,-267,10011,4,-20,11,0
-135,-254,9985,3,-20,11,0
-135,-254,9985,3,-20,9,0
-101,-289,10028,3,-20,9,0
-150,-246,9987,4,-18,9,0
-110,-253,10027,4,-19,12,0
-131,-271,10003,5,-21,12,0
-110,-264,10016,4,-20,10,0
-101,-252,9988,5,-19,10,0
-108,-229,9992,5,-20,11,0
-106,-250,10030,5,-20,8,0
-116,-239,10011,4,-18,11,0
-116,-239,10011,4,-19,13,0
-83,-276,10040,4,-19,13,0
-88,-241,9996,3,-19,12,0
-90,-245,10005,4,-18,14,0
-108,-284,10037,5,-21,12,0
-112,-302,10010,4,-21,11,0
-106,-289,10011,4,-20,11,0
-129,-248,10000,5,-20,9,0
-100,-297,10018,6,-20,10,0
-108,-270,10021,6,-21,12,0
-118,-272,10023,5,-21,10,0
-118,-272,10023,5,-21,10,0
-101,-254,10005,3,-21,10,0
-114,-248,9997,3,-20,10,0
-94,-276,9996,4,-23,9,0
-113,-266,10030,4,-21,10,0
-64,-269,10003,3,-20,10,0
-76,-252,10000,4,-18,12,0
-80,-276,10019,4,-20,10,0
-104,-263,9986,3,-19,7,0
-113,-257,10015,3,-21,7,0
-113,-257,10015,3,-21,7,0
-82,-253,10024,3,-18,9,0
-90,-287,10010,5,-18,10,0
-96,-259,10009,6,-21,12,0
-83,-273,10015,4,-22,12,0
-106,-246,10005,4,-20,10,0
-132,-289,10018,6,-20,11,0
-132,-272,10007,5,-20,10,0
-102,-282,10024,3,-20,8,0
-131,-262,9984,4,-20,9,0
-131,-262,9984,4,-20,9,0
-90,-275,10005,4,-18,10,0
-96,-252,9993,4,-16,10,0
-119,-272,9998,5,-21,11,0
-105,-273,10011,4,-21,9,0
-111,-258,9986,5,-21,10,0
-95,-257,9985,4,-20,10,0
-84,-281,10017,4,-20,12,0
-84,-266,9999,4,-19,13,0
-100,-275,10005,4,-19,10,0
-100,-275,10005,4,-19,10,0
-83,-257,9998,3,-20,10,0
-120,-294,10013,2,-18,9,0
-93,-240,10012,3,-18,11,0
-120,-248,9976,4,-22,10,0
-92,-277,10058,3,-20,9,0
-130,-241,9990,4,-23,12,0
-89,-264,9979,5,-20,9,0
-80,-281,10000,3,-20,9,0
-80,-281,10000,3,-20,9,0
-104,-262,10010,6,-22,11,0
-89,-269,10001,5,-21,10,0
-76,-269,9970,4,-21,10,0
-87,-270,10012,4,-20,12,0
-95,-260,9997,4,-21,12,0
-111,-277,10019,6,-19,11,0
-125,-247,10034,4,-19,10,0
-125,-247,10034,4,-19,8,0
-112,-254,10005,1,-18,8,0
-88,-296,10029,1,-17,8,0
-101,-302,10017,4,-20,11,0
-96,-273,10009,6,-23,13,0
-110,-265,10013,6,-22,12,0
-118,-270,10013,5,-22,14,0
-142,-267,10013,4,-20,13,0
-126,-240,9986,4,-20,10,0
-119,-242,9997,4,-20,11,0
-119,-242,9997,4,-20,12,0
-80,-263,10031,4,-20,12,0
-123,-282,9982,4,-18,9,0
-120,-285,9991,6,-19,11,0
-105,-282,10040,4,-21,9,0
-86,-267,10004,3,-21,12,0
-100,-265,10004,4,-20,13,0
-111,-253,10011,4,-21,12,0
-98,-258,10001,4,-21,10,0
-101,-230,10027,6,-20,12,0
-101,-230,10027,4,-20,10,0
-105,-230,10007,4,-20,10,0
-74,-267,10005,3,-18,11,0
-92,-281,10003,4,-17,13,0
-126,-279,9979,4,-21,12,0
-95,-267,10012,4,-21,11,0
-119,-300,10035,6,-20,12,0
-123,-252,9976,5,-20,9,0
-76,-224,10011,4,-20,11,0
-68,-264,10051,3,-19,9,0
-68,-264,10007,3,-18,11,0
-65,-224,10007,3,-18,11,0
-69,-223,10003,3,-18,8,0
-100,-264,10007,4,-21,11,0
-107,-250,9988,5,-21,13,0
-96,-260,10004,4,-20,10,0
-116,-285,10009,3,-20,9,0
-128,-267,10001,4,-21,10,0
-116,-273,10027,5,-20,10,0
-110,-263,10013,3,-21,12,0
-88,-265,10019,3,-20,10,0
-88,-265,10019,3,-20,10,0
-110,-250,9970,3,-20,10,0
-96,-250,9987,3,-20,10,0
-88,-269,10034,6,-24,12,0
-119,-230,10012,7,-24,13,0
-130,-281,10000,5,-21,11,0
-90,-279,10022,4,-20,10,0
-95,-247,9987,4,-20,12,0
-64,-265,9982,4,-19,9,0
-102,-278,9987,3,-20,9,0
-102,-278,9987,3,-20,9,0
-105,-266,10018,1,-15,9,0
-125,-265,10003,3,-17,10,0
-143,-283,10031,4,-22,10,0
-112,-272,10012,7,-23,12,0
-108,-276,9996,5,-22,12,0
-137,-247,10019,5,-21,10,0
-131,-260,10001,3,-20,9,0
-89,-250,9985,3,-20,10,0
-138,-262,10019,4,-21,9,0
-138,-262,10019,4,-21,9,0
-98,-212,10021,3,-18,9,0
-93,-236,10015,3,-16,9,0
-102,-247,10017,6,-21,11,0
-92,-254,9978,5,-22,12,0
-89,-252,10024,6,-23,12,0
-112,-272,10013,4,-20,12,0
-116,-270,10016,3,-20,10,0
-137,-263,10004,3,-18,10,0
-94,-265,10005,5,-20,9,0
-94,-265,10005,5,-20,9,0
-90,-290,9998,4,-20,10,0
-70,-285,10019,3,-18,9,0
-93,-263,9992,4,-20,13,0
-84,-257,10013,7,-22,12,0
-90,-259,10019,6,-22,12,0
-111,-265,10019,4,-20,13,0
-105,-264,9997,4,-19,13,0
-101,-229,10001,4,-19,12,0
-70,-285,9998,4,-20,12,0
-70,-285,9998,4,-20,12,0
-107,-272,10036,3,-21,11,0
-93,-251,10027,3,-20,10,0
-98,-271,10039,3,-21,12,0
-82,-267,10025,4,-22,9,0
-95,-285,10011,4,-22,11,0
-126,-275,10019,5,-20,11,0
-111,-273,9999,5,-21,11,0
-114,-258,10017,4,-19,10,0
-128,-256,10048,6,-19,10,0
-128,-256,10048,6,-20,10,0
-82,-251,9985,5,-20,10,0
-114,-244,10011,3,-18,9,0
-120,-260,10042,6,-18,14,0
-92,-253,10013,4,-23,12,0
-88,-264,10004,3,-21,10,0
-114,-278,10013,4,-21,10,0
-92,-270,10021,5,-21,10,0
-113,-267,10021,4,-19,9,0
-113,-267,10021,4,-19,9,0
-81,-267,10005,3,-18,11,0
-104,-265,9999,4,-20,12,0
-114,-271,9990,4,-20,13,0
-65,-262,10030,3,-20,10,0
-92,-257,10003,3,-21,10,0
-102,-257,10005,3,-20,12,0
-77,-277,9985,4,-23,10,0
-77,-277,9985,4,-21,12,0
-92,-258,9994,4,-21,12,0
-92,-284,10023,3,-18,10,0
-102,-251,10016,3,-17,12,0
-102,-254,10024,6,-21,12,0
-95,-270,10007,4,-21,12,0
-108,-281,9987,6,-21,14,0
-136,-278,10015,4,-19,11,0
-105,-296,9986,3,-19,10,0
-116,-283,10021,6,-21,11,0
-112,-267,9976,6,-21,12,0
-112,-267,9976,6,-21,12,0
-94,-228,9986,4,-19,9,0
-118,-256,10031,4,-18,12,0
-100,-251,10006,5,-21,12,0
-89,-227,10015,4,-22,10,0
-116,-253,10048,4,-18,10,0
-106,-259,10009,4,-20,9,0
-105,-271,10010,5,-17,9,0
-99,-257,10004,3,-18,10,0
-95,-273,10007,3,-19,11,0
-95,-273,10007,3,-19,11,0
-101,-283,9988,1,-20,10,0
-116,-266,10015,3,-19,10,0
-98,-281,9997,6,-22,12,0
-72,-267,10011,6,-23,10,0
-94,-276,10017,4,-22,11,0
-118,-252,10004,5,-21,10,0
-87,-258,9997,4,-20,10,0
-92,-269,10005,5,-18,9,0
-99,-265,9987,3,-18,11,0
-99,-265,9987,3,-18,11,0
-87,-277,10021,3,-17,10,0
-112,-273,9993,4,-17,9,0
-106,-288,10011,6,-21,9,0
-78,-266,10019,6,-21,9,0
-95,-259,10005,4,-21,9,0
-68,-276,9994,4,-21,9,0
-96,-254,10001,3,-20,10,0
-81,-277,9997,3,-20,10,0
-80,-248,10013,2,-18,7,0
-80,-248,10013,2,-18,7,0
-107,-279,10046,4,-18,9,0
-86,-258,9984,4,-15,9,0
-137,-266,10019,5,-21,10,0
-101,-257,10023,5,-21,11,0
-96,-282,10006,4,-20,9,0
-126,-277,9990,5,-19,10,0
-117,-254,10030,3,-18,11,0
-102,-271,9990,4,-20,10,0
-87,-287,10000,4,-21,10,0
-87,-287,10000,4,-21,10,0
-75,-270,10018,3,-18,10,0
-80,-260,10018,2,-18,8,0
-105,-279,10007,3,-20,13,0
-76,-276,10031,3,-22,14,0
-124,-240,10003,4,-21,12,0
-90,-252,9993,5,-19,10,0
-105,-270,9988,4,-17,12,0
-107,-277,10009,6,-20,11,0
-110,-240,10024,4,-19,10,0
-110,-240,10024,4,-19,10,0
-111,-258,10005,3,-20,9,0
-126,-278,10037,3,-20,7,0
-87,-242,10046,5,-23,12,0
-100,-290,10023,4,-23,12,0
-135,-260,10010,6,-20,12,0
-100,-257,9998,6,-20,9,0
-90,-277,10028,4,-20,8,0
-119,-267,10029,4,-20,10,0
-124,-246,10006,3,-18,11,0
-124,-246,10006,4,-18,9,0
-123,-252,10006,4,-18,9,0
-99,-265,10025,3,-17,12,0
-105,-264,10022,3,-18,12,0
-129,-251,9991,4,-22,10,0
-99,-265,10001,4,-22,9,0
-80,-259,10003,4,-22,9,0
-95,-287,10017,4,-20,12,0
-111,-273,9992,3,-19,9,0
-112,-278,10019,4,-20,10,0
-112,-278,10019,5,-19,9,0
-105,-294,9991,5,-19,9,0
-113,-250,10000,4,-17,7,0
-141,-247,10021,4,-18,9,0
-100,-259,10022,5,-20,12,0
-111,-245,10013,6,-21,12,0
-108,-262,10007,6,-19,12,0
-102,-251,10025,6,-20,12,0
-83,-256,10022,6,-20,9,0
-72,-277,10010,5,-19,10,0
-72,-277,9990,4,-19,9,0
-117,-257,9990,4,-19,9,0
-81,-273,9998,3,-18,10,0
-89,-260,9996,2,-17,8,0
-111,-277,9996,4,-21,10,0
-80,-264,9988,5,-20,11,0
-125,-293,10022,4,-20,10,0
-96,-260,10001,3,-20,10,0
-120,-269,9987,4,-20,10,0
-123,-254,10007,4,-20,10,0
-108,-272,10030,4,-21,9,0
-108,-272,10030,4,-21,9,0
-116,-265,10024,2,-18,7,0
-111,-244,9975,2,-20,10,0
-96,-241,9999,4,-22,10,0
-94,-253,9985,4,-22,9,0
-104,-264,9993,4,-21,10,0
-107,-226,10021,6,-21,11,0
-96,-251,10019,4,-18,11,0
-98,-277,10006,4,-18,12,0
-95,-247,10012,3,-20,10,0
-95,-247,10012,3,-20,10,0
-107,-272,10005,2,-20,9,0
-122,-289,10005,3,-20,9,0
-70,-257,10031,6,-21,10,0
-108,-269,10001,5,-21,12,0
-81,-275,9956,4,-21,12,0
-107,-264,10029,4,-20,10,0
-110,-244,9999,4,-20,10,0
-96,-232,10010,4,-20,11,0
-55,-262,10005,5,-21,12,0
-55,-262,10005,5,-21,12,0
-117,-250,10017,3,-18,9,0
-76,-269,9999,4,-17,9,0
-122,-233,10028,5,-21,11,0
-100,-254,9985,4,-21,12,0
-114,-265,9999,4,-20,12,0
-100,-258,10009,5,-21,12,0
-82,-262,9999,4,-18,12,0
-96,-252,10017,4,-18,12,0
-72,-263,9991,3,-20,14,0
-72,-263,9991,3,-20,14,0
-147,-259,10004,3,-18,9,0
-119,-266,9999,4,-16,12,0
-107,-256,9978,5,-22,11,0
-136,-254,10004,5,-21,12,0
-96,-239,10011,4,-21,12,0
-96,-254,10000,3,-19,9,0
-124,-260,9997,3,-20,9,0
-105,-238,10009,4,-18,10,0
-137,-266,10018,6,-20,12,0
-137,-266,10018,6,-20,12,0
-99,-244,10017,4,-20,12,0
-125,-294,10033,1,-18,8,0
-95,-283,9984,4,-20,12,0
-108,-254,10005,6,-22,12,0
-88,-276,9969,4,-20,12,0
-128,-260,10017,4,-21,12,0
-101,-253,9994,4,-19,10,0
-137,-256,9987,4,-20,12,0
-106,-247,10010,3,-21,9,0
-106,-247,10010,3,-21,8,0
-123,-262,9996,3,-21,8,0
-114,-246,10006,1,-20,7,0
-99,-279,9994,4,-20,10,0
-104,-258,9991,4,-22,10,0
-101,-253,9996,4,-22,11,0
-113,-282,9991,3,-20,12,0
-76,-275,9997,4,-21,11,0
-131,-260,10004,5,-21,10,0
-99,-271,10012,5,-21,11,0
-99,-271,10012,3,-19,9,0
-104,-264,9972,3,-19,9,0
-74,-300,9985,1,-17,8,0
-81,-253,10021,3,-18,8,0
-99,-258,9998,4,-22,9,0
-102,-263,9994,4,-20,10,0
-119,-232,10009,3,-20,8,0
-105,-222,10011,4,-21,10,0
-129,-240,10024,5,-21,12,0
-87,-244,10029,4,-20,12,0
-87,-244,10029,4,-21,10,0
-98,-242,9991,4,-21,10,0
-100,-279,10015,3,-15,8,0
-77,-260,10009,3,-16,12,0
-70,-264,10027,4,-21,12,0
-96,-238,9999,4,-20,10,0
-83,-258,9979,3,-20,11,0
-88,-276,10030,4,-20,10,0
-72,-264,9974,4,-19,10,0
-76,-283,9997,4,-20,10,0
-93,-283,9996,5,-20,12,0
-93,-270,9996,5,-20,12,0
-108,-262,10016,3,-16,9,0
-147,-266,10012,4,-16,10,0
-128,-285,10003,6,-21,11,0
-136,-296,10021,4,-21,12,0
-117,-276,10003,4,-21,10,0
-98,-285,10023,4,-18,9,0
-92,-238,10023,4,-18,10,0
-98,-251,9997,4,-19,11,0
-81,-254,10001,6,-18,11,0
-81,-254,10001,6,-18,11,0
-81,-241,9992,3,-19,9,0
-102,-263,10017,2,-20,11,0
-106,-293,9998,5,-21,11,0
-117,-266,10006,5,-22,13,0
-106,-276,10011,5,-21,10,0
-104,-269,10027,4,-20,7,0
-98,-275,10007,3,-22,10,0
-102,-306,10018,4,-20,10,0
-100,-263,9986,4,-19,11,0
-100,-263,9986,4,-19,11,0
-110,-239,10017,3,-21,11,0
-123,-279,10035,5,-20,11,0
-114,-270,9975,4,-23,12,0
-89,-264,9986,3,-23,10,0
-101,-273,10021,6,-20,11,0
-111,-263,10028,2,-19,11,0
-100,-278,10004,3,-20,11,0
-100,-278,10004,4,-21,10,0
-136,-272,9996,4,-21,10,0
-105,-256,10013,5,-21,10,0
-87,-253,10012,6,-21,12,0
-92,-265,10011,4,-21,9,0
-130,-270,9988,3,-20,10,0
-101,-273,10017,4,-18,12,0
-102,-254,10015,5,-19,12,0
-111,-250,10012,3,-20,10,0
-111,-250,10012,3,-20,10,0
-96,-259,10015,3,-18,10,0
-107,-258,10004,4,-15,12,0
-94,-263,10018,6,-19,12,0
-113,-260,10012,6,-22,12,0
-72,-279,9981,6,-22,11,0
-99,-253,9993,5,-21,12,0
-122,-265,10021,5,-20,13,0
-113,-287,9997,6,-19,11,0
-130,-285,10018,4,-18,11,0
-130,-285,10018,4,-18,11,0
-133,-270,9990,4,-19,9,0
-98,-265,9993,5,-18,10,0
-80,-287,10018,5,-19,12,0
-89,-252,10006,6,-23,10,0
-112,-238,10009,4,-21,9,0
-101,-241,10016,4,-20,11,0
-90,-264,10023,6,-20,12,0
-111,-267,10023,5,-19,10,0
-81,-295,9991,4,-18,10,0
-81,-295,9991,3,-20,7,0
-101,-245,9994,3,-20,7,0
-124,-253,10004,2,-21,10,0
-133,-242,9997,4,-17,10,0
-78,-267,10006,5,-20,10,0
-96,-270,10004,6,-21,11,0
-90,-277,10022,6,-19,10,0
-82,-295,10006,4,-21,8,0
-94,-281,9996,3,-20,9,0
-143,-278,9990,4,-21,10,0
-143,-278,9990,4,-18,9,0
-120,-263,10025,4,-18,9,0
-122,-269,9978,2,-18,7,0
-118,-215,10019,4,-18,12,0
-99,-263,9994,6,-23,13,0
-81,-241,9987,4,-21,13,0
-106,-273,10004,4,-21,13,0
-70,-281,10036,4,-20,12,0
-87,-272,10009,4,-21,10,0
-101,-260,9994,4,-20,9,0
-101,-260,9992,4,-19,9,0
-92,-273,9992,4,-19,9,0
-92,-309,10018,2,-15,6,0
-92,-269,9978,6,-17,11,0
-112,-275,10011,7,-23,11,0
-111,-257,10012,7,-21,14,0
-92,-285,10049,4,-20,12,0
-113,-267,10022,5,-19,10,0
-111,-262,10005,4,-18,11,0
-108,-277,10019,4,-19,10,0
-95,-260,9996,5,-18,10,0
-95,-260,9996,5,-18,10,0
-86,-263,9997,4,-17,10,0
-90,-242,9991,4,-18,12,0
-64,-256,9986,5,-17,10,0
-84,-215,9999,4,-20,9,0
-89,-206,9974,4,-20,10,0
-130,-253,10046,3,-18,9,0
-142,-258,9997,6,-18,10,0
-131,-242,10001,4,-20,10,0
-132,-306,9984,4,-21,10,0
-132,-306,9984,4,-21,10,0
-112,-289,9976,3,-20,8,0
-86,-253,10015,3,-18,10,0
-117,-257,9982,4,-20,10,0
-99,-297,9987,4,-21,8,0
-98,-259,10012,4,-19,9,0
-94,-282,10007,3,-18,10,0
-96,-294,9998,4,-19,11,0
-105,-296,10025,6,-20,11,0
-93,-260,9994,4,-20,11,0
-93,-260,9994,4,-20,11,0
-101,-276,10004,4,-23,10,0
-90,-248,10031,2,-20,12,0
-106,-294,10016,3,-23,14,0
-106,-265,10003,5,-23,12,0
-105,-259,10019,5,-21,15,0
-98,-241,10021,3,-20,12,0
-90,-273,9998,4,-20,10,0
-89,-272,9980,4,-20,12,0
-95,-289,10003,4,-20,9,0
-95,-289,10003,4,-20,9,0
-99,-273,10027,4,-20,7,0
-116,-259,9994,4,-17,8,0
-70,-236,9978,5,-21,10,0
-114,-259,10012,3,-20,11,0
-123,-246,10001,4,-19,10,0
-86,-254,9996,4,-20,9,0
-75,-278,9993,4,-21,9,0
-96,-267,10027,5,-20,10,0
-99,-257,10004,4,-19,10,0
-99,-257,10004,4,-19,10,0
-116,-289,10000,3,-20,7,0
-124,-259,10004,2,-16,9,0
-80,-256,10007,3,-20,11,0
-68,-267,10018,4,-20,10,0
-64,-282,10009,4,-20,11,0
-107,-265,10021,4,-20,10,0
-105,-295,10015,4,-21,11,0
-104,-263,10009,4,-20,8,0
-104,-263,10009,4,-20,8,0
-104,-228,10004,6,-20,11,0
-110,-238,10022,6,-23,13,0
-135,-246,10019,4,-20,11,0
-105,-227,9987,5,-20,10,0
-132,-258,9987,5,-20,10,0
-94,-285,10013,3,-20,11,0
-120,-325,10021,4,-20,11,0
-120,-325,10021,4,-21,10,0
-100,-284,9993,4,-21,10,0
-111,-258,9996,3,-18,8,0
-93,-291,10013,5,-19,12,0
-98,-250,10011,7,-21,13,0
-90,-253,9993,5,-21,11,0
-90,-223,10012,4,-18,12,0
