aX,aY,aZ,gX,gY,gZ,target
-5267,4127,10200,257,348,-1596,2
-5194,4354,10292,235,420,-2139,2
-4908,3320,10207,246,552,-2689,2
-4908,3320,10207,246,552,-2689,2
-4435,1817,9527,324,711,-3141,2
-3485,174,9292,431,826,-3425,2
-2991,-732,8785,491,876,-3472,2
-3383,-321,8158,459,783,-3416,2
-3695,434,8056,324,563,-3401,2
-3662,1243,8672,172,328,-3505,2
-3341,812,9329,17,218,-3668,2
-2884,-229,9486,-116,260,-3800,2
-2456,-1493,9129,-200,360,-3836,2
-2456,-1493,9129,-200,360,-3836,2
-2243,-3300,8565,-219,426,-3728,2
-2147,-4807,8060,-144,430,-3463,2
-2127,-4809,8250,-26,367,-3097,2
-2718,-3371,8614,7,272,-2774,2
-2140,-4254,8863,32,73,-2645,2
-1698,-5564,9028,158,130,-2459,2
-1698,-5564,9028,158,191,-2138,2
-1457,-6294,9174,248,191,-2138,2
-1557,-6259,9144,262,215,-1735,2
-1938,-5298,9006,209,165,-1375,2
-2204,-4607,8861,114,78,-1139,2
-2277,-4280,8866,58,14,-1010,2
-2238,-4365,8991,32,2,-934,2
-2036,-4947,9107,28,37,-842,2
-2030,-5334,9007,25,76,-709,2
-2195,-5330,8571,28,60,-555,2
-2195,-5330,8571,25,-3,-400,2
-2166,-5426,8624,25,-3,-400,2
-2091,-5337,8743,26,-46,-237,2
-2196,-5227,8922,21,-49,-83,2
-2110,-5355,8945,-3,-21,67,2
-2196,-5277,8764,-44,4,218,2
-2317,-4936,8475,-73,-14,356,2
-2611,-4280,8271,-85,-79,435,2
-2673,-4156,8392,-86,-148,452,2
-2562,-4292,8535,-73,-172,467,2
-2562,-4292,8524,-64,-160,519,2
-2548,-4498,8524,-64,-160,519,2
-2526,-4652,8484,-57,-149,604,2
-2468,-4883,8583,-64,-147,724,2
-2475,-4888,8468,-93,-153,886,2
-2707,-4618,8327,-136,-193,1037,2
-2840,-4259,8283,-167,-280,1144,2
-2848,-3881,8461,-195,-378,1205,2
-2782,-3677,8634,-235,-453,1240,2
-2640,-3686,8866,-267,-498,1280,2
-2636,-3595,9087,-282,-492,1334,2
-2636,-3595,9087,-282,-492,1334,2
-2657,-3817,9192,-301,-456,1392,2
-2371,-3677,9656,-293,-378,1467,2
-2580,-3552,9749,-293,-252,1566,2
-2670,-3450,9538,-286,-112,1661,2
-3043,-3159,9516,-267,0,1710,2
-3177,-3080,9262,-262,64,1717,2
-3018,-3250,9086,-270,69,1727,2
-3263,-3442,8726,-260,48,1786,2
-3341,-3404,8551,-205,8,1860,2
-3341,-3404,8551,-205,8,1860,2
-3255,-3189,8579,-155,-58,1910,2
-3427,-2967,8615,-144,-129,1967,2
-3559,-2665,8601,-164,-204,2006,2
-3482,-2438,8734,-194,-270,2015,2
-3559,-2160,8877,-220,-302,2010,2
-3665,-1735,9072,-251,-323,1978,2
-3793,-1373,9160,-285,-345,1902,2
-3958,-1194,9229,-295,-346,1791,2
-4046,-1182,9255,-265,-321,1653,2
-4046,-1182,9255,-265,-321,1653,2
-3992,-1202,9238,-188,-260,1519,2
-4064,-1406,9023,-90,-171,1412,2
-4116,-1639,8780,24,-108,1334,2
-4028,-1854,8585,124,-83,1293,2
-4027,-1957,8415,205,-100,1284,2
-4018,-1868,8477,260,-137,1300,2
-4027,-1514,8853,279,-164,1306,2
-4042,-1095,9117,256,-163,1282,2
-4133,-666,9336,201,-146,1226,2
-4133,-666,9336,201,-146,1226,2
-4362,-235,9451,119,-121,1120,2
-4505,-120,9372,15,-107,970,2
-4436,-398,9133,-75,-116,820,2
-4332,-768,8841,-131,-127,705,2
-4307,-1253,8614,-139,-140,642,2
-4211,-1591,8428,-114,-158,628,2
-4052,-1830,8347,-62,-175,649,2
-3992,-2067,8216,-4,-203,703,2
-3829,-2145,8307,44,-250,783,2
-3829,-2145,8307,44,-250,783,2
-3817,-1904,8629,81,-298,866,2
-3862,-1366,9098,80,-329,913,2
-4021,-708,9725,43,-332,896,2
-4266,-208,10004,-26,-293,796,2
-4400,-108,9992,-92,-232,643,2
-4325,-343,9718,-127,-153,483,2
-4256,-782,9340,-127,-91,357,2
-4143,-1186,9011,-98,-65,288,2
-4042,-1441,8994,-53,-70,277,2
-4042,-1441,8994,-53,-70,306,2
-3980,-1518,8983,-18,-76,306,2
-3926,-1581,8903,12,-78,354,2
-3942,-949,9133,67,-62,60,2
-3954,-912,9227,78,-67,75,2
-4005,-799,9316,83,-71,88,2
-3982,-711,9323,94,-60,102,2
-3982,-711,9323,94,-60,102,2
-4063,-451,9357,116,-42,111,2
-4247,-161,9358,147,-31,105,2
-4351,104,9421,170,-28,66,2
-4331,220,9460,169,-20,6,2
-4406,374,9602,154,-6,-67,2
-4447,549,9616,127,8,-152,2
-4435,787,9716,92,31,-264,2
-4488,985,9614,53,58,-390,2
-4736,1250,9397,64,95,-564,2
-4736,1250,9397,64,95,-564,2
-4727,1415,9194,108,135,-783,2
-4689,1782,9388,174,158,-1023,2
-4956,2748,9560,240,176,-1313,2
-5142,3262,9448,257,180,-1687,2
-4840,3221,9638,217,188,-2097,2
-4636,2499,9796,153,254,-2479,2
-4618,1741,9452,110,354,-2822,2
-4116,1167,9401,83,430,-3105,2
-3738,557,9145,55,468,-3300,2
-3738,557,9145,55,468,-3300,2
-3342,-279,8696,36,471,-3391,2
-3187,-642,8653,94,444,-3431,2
-3016,-394,9139,178,411,-3444,2
-2975,-47,9692,169,413,-3462,2
-3127,-150,9542,80,448,-3510,2
-3171,-494,9303,8,447,-3611,2
-2738,-1889,9064,-20,441,-3681,2
-2507,-2456,8714,33,439,-3640,2
-2705,-2041,8581,112,384,-3580,2
-2705,-2041,8581,144,313,-3561,2
-2474,-2344,8941,144,313,-3561,2
-1992,-3209,9414,133,293,-3497,2
-1846,-4342,9477,119,379,-3340,2
-1871,-5504,8920,164,488,-3119,2
-1643,-6025,8801,269,528,-2844,2
-1893,-5361,8604,315,463,-2536,2
-1875,-4693,8864,255,309,-2268,2
-1854,-4651,8971,135,181,-2066,2
-1610,-5338,8957,80,154,-1887,2
-1610,-5338,8957,80,154,-1887,2
-1495,-6021,8843,136,222,-1678,2
-1405,-6113,8742,243,300,-1428,2
-1420,-5894,8761,290,324,-1166,2
-1523,-5679,8723,227,288,-918,2
-1567,-5808,8663,122,224,-693,2
-1512,-5973,8451,29,177,-464,2
-1783,-5880,8044,-9,122,-244,2
-1926,-5702,7960,-6,40,-72,2
-1968,-5359,8087,-22,-57,65,2
-1968,-5359,8087,-22,-57,65,2
-2070,-5024,8104,-70,-156,174,2
-2239,-4791,8067,-116,-246,246,2
-2137,-4803,8182,-116,-313,298,2
-2067,-4847,8306,-92,-321,362,2
-2238,-4716,8401,-64,-300,437,2
-2225,-4549,8579,-52,-285,509,2
-2410,-4253,8586,-50,-273,572,2
-2583,-3779,8714,-48,-273,604,2
-2697,-3505,8912,-69,-278,598,2
-2697,-3505,8912,-69,-267,582,2
-2723,-3866,8935,-101,-267,582,2
-2584,-4429,8922,-100,-228,609,2
-2475,-5076,8793,-86,-193,711,2
-2301,-5613,8513,-97,-189,893,2
-2203,-6020,8262,-137,-239,1138,2
-2051,-6281,8045,-187,-335,1428,2
-1974,-6271,7960,-236,-484,1732,2
-1551,-5795,8371,-273,-624,2030,2
-1696,-4716,9080,-335,-713,2284,2
-1804,-4065,9486,-451,-751,2445,2
-1804,-4065,9486,-451,-751,2445,2
-1826,-3741,9775,-536,-725,2535,2
-2027,-3479,9893,-549,-640,2591,2
-2151,-2987,10046,-507,-533,2613,2
-2495,-2370,9969,-467,-433,2599,2
-2623,-2126,9792,-420,-365,2552,2
-3169,-2321,9416,-329,-291,2493,2
-3244,-2496,9402,-213,-237,2422,2
-3141,-2828,9198,-123,-179,2387,2
-3141,-2828,9198,-48,-142,2409,2
-3126,-3005,9029,-48,-142,2409,2
-3188,-2749,8979,24,-139,2463,2
-3205,-2189,9308,86,-145,2516,2
-3604,-853,9683,109,-142,2488,2
-4006,259,9934,28,-124,2339,2
-4232,715,9875,-91,-83,2103,2
-4607,528,9555,-150,-32,1810,2
-4537,-92,9148,-136,15,1530,2
-4505,-778,8719,-49,47,1328,2
-4339,-1350,8437,67,61,1212,2
-4339,-1350,8437,67,61,1212,2
-4158,-1802,8220,176,51,1182,2
-4151,-1977,8037,250,-4,1207,2
-4003,-1855,8197,288,-92,1254,2
-4015,-1372,8650,284,-166,1287,2
-4125,-850,9001,224,-197,1274,2
-4168,-449,9199,136,-188,1204,2
-4235,-436,9285,39,-158,1100,2
-4228,-471,9165,-41,-134,1004,2
-3961,-722,9098,28,-17,32,2
-3981,-734,9096,29,-23,26,2
-3981,-734,9096,31,-28,18,2
-3951,-771,9046,31,-28,18,2
-3929,-837,9077,40,-28,17,2
-3945,-808,9125,52,-29,27,2
-3978,-631,9201,64,-28,39,2
-4091,-175,9266,75,-23,34,2
-4234,129,9347,79,-19,1,2
-4322,434,9493,87,-4,-67,2
-4380,563,9535,100,27,-156,2
-4465,492,9493,112,54,-262,2
-4465,492,9493,124,84,-357,2
-4350,233,9493,124,84,-357,2
-4274,352,9479,139,112,-438,2
-4433,1441,9879,155,128,-548,2
-5058,2675,10254,143,183,-788,2
-5082,3480,10238,131,306,-1161,2
-5004,4192,10363,109,437,-1613,2
-5170,4857,10346,58,536,-2106,2
-5641,4376,9450,-62,557,-2648,2
-5239,3071,8890,-114,533,-3225,2
-4161,1324,8702,-144,499,-3662,2
-4161,1324,8702,-144,499,-3662,2
-3278,-833,8151,-174,458,-3808,2
-3072,-1274,8000,-64,426,-3743,2
-3128,-579,8323,86,378,-3646,2
-3315,13,8883,185,372,-3629,2
-3395,943,9572,196,417,-3753,2
-3294,1343,10024,69,469,-3985,2
-2873,-551,9443,-109,515,-4208,2
-2062,-3217,8967,-145,566,-4243,2
-1475,-4896,8713,-18,627,-4013,2
-1475,-4896,8713,-18,627,-4013,2
-1600,-5839,8322,152,651,-3621,2
-1898,-5684,8157,277,580,-3163,2
-2177,-5015,8532,297,428,-2786,2
-2434,-3687,8857,224,266,-2549,2
-2496,-2980,8921,106,145,-2486,2
-2244,-3878,8699,58,113,-2499,2
-1642,-5280,8772,164,158,-2450,2
-1266,-6387,8901,307,238,-2247,2
-1351,-6404,8810,389,286,-1940,2
-1351,-6404,8810,389,286,-1940,2
-1548,-6076,8595,365,232,-1637,2
-1713,-5557,8437,292,113,-1386,2
-1710,-5143,8561,230,-4,-1193,2
-1635,-5204,8815,187,-43,-1034,2
-1616,-5266,8892,178,-4,-893,2
-1623,-5511,8863,178,67,-758,2
-1606,-5964,8584,162,96,-605,2
-1488,-6510,8386,130,66,-412,2
-1526,-6667,8189,109,15,-186,2
-1526,-6667,8189,109,15,-186,2
-1476,-6151,8062,90,-51,45,2
-1660,-5454,8023,43,-128,232,2
-1850,-4794,8171,7,-202,338,2
-2047,-4265,8279,-43,-256,364,2
-1958,-4325,8395,-76,-295,356,2
-2037,-4689,8469,-74,-302,379,2
-2080,-5175,8482,-54,-301,434,2
-1975,-5641,8547,-35,-304,541,2
-1953,-5903,8440,-28,-301,698,2
-1953,-5903,8440,-28,-301,698,2
-1878,-5992,8319,-34,-321,882,2
-1782,-5954,8423,-71,-365,1083,2
-1954,-5176,8386,-135,-448,1283,2
-2141,-4173,8694,-236,-584,1405,2
-2413,-3318,8882,-326,-698,1431,2
-2475,-2695,9294,-380,-753,1370,2
-2559,-2569,9598,-395,-702,1267,2
-2645,-2790,9695,-369,-581,1164,2
-2639,-3256,9756,-315,-429,1091,2
-2639,-3256,9756,-315,-429,1082,2
-2566,-3918,9649,-262,-291,1082,2
-2571,-4304,9355,-211,-188,1153,2
-2675,-4401,8940,-162,-143,1268,2
-2751,-4380,8579,-160,-189,1403,2
-2685,-4299,8446,-190,-313,1536,2
-2559,-4124,8736,-222,-455,1670,2
-2524,-3617,9158,-255,-522,1780,2
-2652,-3158,9540,-291,-511,1831,2
-2647,-2690,9702,-323,-446,1827,2
-2647,-2690,9702,-356,-389,1802,2
-2699,-2453,9604,-356,-389,1802,2
-2760,-2745,9519,-337,-343,1768,2
-2608,-2992,9631,-263,-267,1767,2
-2699,-3403,9363,-182,-174,1812,2
-2703,-3655,9162,-85,-94,1894,2
-2750,-3632,9080,2,-38,1995,2
-2779,-3431,9013,79,-11,2100,2
-2974,-3048,8766,137,-23,2186,2
-3214,-2365,8725,163,-87,2213,2
-3214,-2365,8725,130,-171,2174,2
-3299,-1664,9037,130,-171,2174,2
-3482,-1205,9383,47,-234,2081,2
-3627,-1034,9554,-40,-241,1954,2
-3785,-1031,9420,-94,-201,1813,2
-3844,-1113,9183,-103,-155,1671,2
-3902,-1367,8986,-72,-119,1557,2
-3799,-1635,8946,0,-80,1479,2
-3759,-1856,8975,87,-42,1450,2
-3757,-1850,8891,178,-14,1455,2
-3757,-1850,8770,262,-4,1460,2
-3778,-914,9311,21,1,26,2
-3834,-884,9286,17,0,32,2
-3863,-859,9187,17,0,34,2
-3964,-665,9164,17,3,31,2
-4034,-577,9127,17,7,15,2
-4054,-501,9089,20,9,-12,2
-4052,-486,9140,23,-1,-41,2
-4040,-526,9233,31,-6,-68,2
-4040,-526,9233,42,-1,-94,2
-4029,-535,9357,42,-1,-94,2
-4033,-577,9396,51,24,-113,2
-4031,-352,9486,62,42,-125,2
-4218,-100,9516,61,53,-160,2
-4240,26,9530,51,64,-230,2
-4219,-29,9457,55,91,-311,2
-4218,-53,9433,72,122,-392,2
-4092,33,9515,93,140,-455,2
-4451,922,9833,126,171,-551,2
-4451,922,9833,142,232,-763,2
-4942,1908,9917,142,232,-763,2
-5042,2664,10082,163,340,-1103,2
-4973,2745,9952,156,443,-1488,2
-5146,2636,9576,133,492,-1874,2
-4917,2111,9299,90,497,-2265,2
-4526,1701,9531,56,522,-2616,2
-4217,1864,9651,7,580,-2907,2
-4396,2537,9470,-32,641,-3200,2
-4375,1846,8950,-61,664,-3529,2
-3713,592,8441,9,668,-3802,2
-3713,592,8441,9,668,-3802,2
-3153,-732,8190,145,649,-3908,2
-2852,-1702,8266,278,607,-3851,2
-2791,-1856,8478,371,553,-3714,2
-2879,-1210,9065,382,503,-3586,2
-3056,-1176,9334,279,480,-3523,2
-2788,-1637,9495,175,492,-3530,2
-2452,-2852,9230,89,541,-3496,2
-2245,-4201,8638,69,578,-3362,2
-2039,-5217,8214,131,572,-3134,2
-2039,-5217,8214,131,572,-3134,2
-2059,-5546,8008,309,361,-2532,2
-2012,-5650,8297,102,12,-827,2
-2047,-5852,8307,106,-28,-631,2
-2047,-5852,8307,106,-28,-631,2
-2017,-6171,8305,119,-54,-440,2
-1886,-6276,8251,139,-69,-233,2
-1880,-5729,8450,153,-91,-23,2
-2086,-4904,8484,105,-133,156,2
-2356,-4226,8555,21,-172,238,2
-2557,-4007,8493,-41,-207,241,2
-2530,-4287,8483,-54,-231,219,2
-2530,-4287,8483,-54,-231,219,2
-2428,-4762,8528,-7,-227,234,2
-2428,-5312,8493,56,-200,310,2
-2354,-5715,8366,105,-185,445,2
-2467,-5767,8141,111,-204,629,2
-2603,-5057,8249,87,-304,795,2
-2428,-4488,8699,-8,-422,921,2
-2255,-4138,9199,-136,-494,1029,2
-2483,-3645,9620,-268,-489,1131,2
-2800,-3574,9548,-369,-450,1175,2
-2800,-3574,9548,-369,-450,1175,2
-2784,-3834,9420,-405,-397,1196,2
-2860,-3888,9205,-356,-331,1222,2
-2891,-3769,9163,-289,-271,1261,2
-2931,-3847,9000,-232,-221,1299,2
-2962,-3651,8976,-191,-194,1342,2
-3036,-3375,9126,-180,-191,1389,2
-3274,-3127,9024,-217,-215,1415,2
-3245,-3066,9020,-274,-257,1423,2
-3242,-3305,8975,-338,-305,1441,2
-3242,-3305,8975,-338,-305,1441,2
-3192,-3361,9061,-361,-328,1481,2
-3163,-3400,9151,-354,-304,1520,2
-3166,-3546,8993,-324,-251,1571,2
-3116,-3718,8694,-266,-209,1635,2
-3069,-3829,8593,-172,-197,1719,2
-2949,-3482,8974,-81,-196,1813,2
-3000,-3038,9214,-50,-180,1899,2
-3006,-2781,9244,-75,-169,1950,2
-2965,-2909,9104,-109,-163,2004,2
-2965,-2909,9104,-86,-154,2053,2
-3200,-2918,8866,-86,-154,2053,2
-3341,-2723,8705,-30,-171,2089,2
-3360,-2514,8834,26,-204,2105,2
-3294,-1933,9343,57,-224,2103,2
-3600,-1274,9667,40,-191,2054,2
-3885,-948,9442,-26,-145,1951,2
-4180,-893,9144,-73,-119,1797,2
-4315,-862,8884,-76,-124,1629,2
-4342,-1006,8714,-48,-150,1481,2
-4342,-1006,8714,0,-167,1365,2
-4210,-1082,8768,0,-167,1365,2
-4086,-1117,8938,37,-166,1306,2
-4261,-978,8933,75,-152,1260,2
-4342,-924,8958,97,-139,1202,2
-4384,-1030,8975,112,-116,1144,2
-4279,-1216,8885,145,-73,1096,2
-4116,-1368,8794,196,-30,1083,2
-4145,-1288,8758,249,1,1092,2
-4256,-934,8699,281,7,1088,2
-4256,-934,8699,266,-21,1039,2
-4414,-585,8757,266,-21,1039,2
-4469,-299,8930,216,-50,953,2
-3996,-652,9050,20,-11,36,2
-4037,-589,9110,21,-18,28,2
-4035,-534,9183,20,-22,15,2
-4035,-569,9279,12,-23,-3,2
-4034,-659,9212,6,-15,-15,2
-3962,-781,9168,10,-9,-13,2
-3986,-734,9120,19,-6,-2,2
-4003,-666,9160,28,-9,9,2
-4019,-473,9235,34,-6,14,2
-4019,-473,9235,34,-6,14,2
-4164,-222,9284,37,4,3,2
-4240,49,9306,39,18,-32,2
-4297,189,9335,45,31,-86,2
-4346,278,9281,53,50,-149,2
-4380,282,9109,73,64,-219,2
-4303,648,9220,111,67,-308,2
-4688,991,9419,143,83,-433,2
-4575,690,9403,158,122,-603,2
-4216,-1,9337,171,163,-738,2
-4216,-1,9337,171,163,-778,2
-3931,-491,9273,186,188,-778,2
-3885,-171,9517,206,186,-771,2
-4682,2135,10214,215,207,-863,2
-5533,4116,10908,174,268,-1219,2
-5746,6221,11565,87,429,-1832,2
-6502,6324,10524,-85,610,-2624,2
-5901,4636,8934,-123,719,-3455,2
-3936,1939,8213,-49,745,-4041,2
-2756,-1128,7609,62,691,-4185,2
-2756,-1128,7609,182,564,-3943,2
-2356,-2885,7383,182,564,-3943,2
-2690,-2415,7612,263,373,-3555,2
-3634,-379,8323,287,211,-3305,2
-4236,1524,9107,254,120,-3401,2
-3680,1451,9799,119,174,-3720,2
-2682,-490,9872,-26,357,-3979,2
-1922,-3451,9154,-103,527,-3983,2
-1344,-5868,8577,-59,582,-3700,2
-1392,-7301,7903,68,536,-3211,2
-1392,-7301,7903,166,383,-2621,2
-1702,-6936,7919,166,383,-2621,2
-2120,-5527,8504,119,162,-2116,2
-2578,-4498,8830,-61,-45,-1806,2
-2579,-3737,9031,-200,-169,-1693,2
-2471,-3663,8968,-251,-189,-1684,2
-1901,-4811,8898,-193,-123,-1656,2
-1597,-6038,8863,-17,4,-1484,2
-1576,-6315,9095,186,125,-1210,2
-1916,-6072,9115,266,189,-910,2
-1916,-6072,8834,283,208,-675,2
-2315,-5309,8834,283,208,-675,2
-2583,-4645,8824,269,205,-545,2
-2575,-4237,8709,244,208,-477,2
-2660,-4121,8542,202,204,-437,2
-2654,-4396,8388,130,155,-402,2
-2778,-4588,8327,63,71,-357,2
-2723,-4917,8231,7,-44,-289,2
-2682,-5252,8293,-10,-119,-201,2
-2577,-5461,8441,-6,-142,-80,2
-2537,-5392,8340,-3,-138,72,2
-2537,-5392,8340,14,-139,221,2
-2499,-4863,8300,14,-139,221,2
-2807,-3896,8361,50,-144,321,2
-3163,-3133,8522,53,-159,318,2
-3209,-3176,8470,23,-190,248,2
-3102,-3696,8604,8,-218,190,2
-2864,-4242,8742,6,-219,205,2
-2797,-4742,8740,-10,-214,286,2
-2581,-5253,8672,-31,-196,434,2
-2551,-5331,8681,-56,-179,633,2
-2551,-5331,8681,-56,-179,633,2
-2606,-5330,8550,-122,-206,847,2
-2648,-5206,8439,-196,-304,1051,2
-2550,-4817,8729,-260,-426,1227,2
-2482,-4356,9014,-311,-506,1368,2
-2512,-4162,9148,-342,-527,1472,2
-2541,-3980,9144,-331,-506,1551,2
-2581,-3852,9035,-277,-464,1621,2
-2629,-3840,8880,-218,-428,1686,2
-2614,-3785,8974,-167,-403,1758,2
-2614,-3785,8974,-167,-403,1758,2
-2591,-3589,9201,-142,-381,1836,2
-2566,-3275,9518,-174,-342,1921,2
-2693,-2803,9780,-240,-285,1988,2
-2919,-2608,9683,-322,-236,2026,2
-3017,-2591,9707,-364,-199,2046,2
-3135,-2453,9628,-372,-150,2058,2
-3400,-2359,9430,-353,-106,2056,2
-3595,-2347,9050,-304,-82,2023,2
-3655,-2352,8707,-235,-97,1985,2
-3655,-2352,8707,-235,-97,1985,2
-3632,-2266,8580,-163,-131,1951,2
-3763,-2252,8557,-89,-162,1914,2
-3543,-2050,8790,-16,-174,1885,2
-3681,-1677,9123,25,-158,1853,2
-3884,-1387,9184,35,-125,1802,2
-4042,-1234,9114,40,-94,1719,2
-4065,-1306,9140,72,-56,1624,2
-4019,-1173,9165,122,-4,1537,2
-4152,-1142,9135,166,42,1463,2
-4152,-1142,9135,201,71,1388,2
-4258,-982,9011,201,71,1388,2
-4358,-847,9010,219,87,1311,2
-4438,-886,8818,220,73,1245,2
-4110,-861,9135,8,-17,18,2
-4110,-831,9138,9,-20,24,2
-4066,-799,9172,7,-19,31,2
-4139,-710,9189,7,-15,35,2
-4169,-607,9162,7,-6,31,2
-4200,-574,9121,7,-1,17,2
-4165,-551,9058,8,4,1,2
-4200,-546,9048,15,1,-9,2
-4200,-546,9048,15,1,-9,2
-4218,-531,9064,23,-4,-20,2
-4277,-508,9123,27,-8,-28,2
-4254,-506,9134,28,-10,-37,2
-4216,-521,9150,27,-6,-42,2
-4274,-506,9102,34,-4,-46,2
-4236,-393,9110,47,-3,-48,2
-4424,-89,9328,65,2,-63,2
-4479,230,9469,78,26,-106,2
-4578,558,9548,86,59,-177,2
-4578,558,9548,86,59,-177,2
-4648,722,9547,94,93,-276,2
-4760,983,9509,112,132,-397,2
-4797,884,9349,130,165,-541,2
-4694,576,9126,155,210,-675,2
-4542,468,9068,163,217,-787,2
-4516,1429,9509,166,206,-897,2
-4998,3148,10334,131,246,-1102,2
-5839,5417,10783,65,378,-1558,2
-6391,6344,9911,-49,535,-2262,2
-6391,6344,9911,-49,535,-2262,2
-6589,5802,8896,-108,607,-3105,2
-5085,4651,8955,-49,622,-3952,2
-3576,2462,8895,7,651,-4509,2
-2910,-75,8333,130,689,-4721,2
-2539,-1935,7944,312,694,-4634,2
-2498,-2700,7987,523,657,-4366,2
-2799,-1942,8133,682,604,-4061,2
-3294,-1210,8508,679,499,-3895,2
-3054,-1118,9180,545,403,-3853,2
-3054,-1118,9180,545,403,-3853,2
-2725,-1959,9274,335,345,-3825,2
-2233,-3483,9078,172,308,-3728,2
-1982,-4473,8955,106,285,-3521,2
-1922,-5264,8760,100,285,-3236,2
-1929,-5728,8616,136,265,-2909,2
-1712,-6089,8719,195,235,-2550,2
-1739,-6442,8748,272,227,-2162,2
-2030,-5833,8827,347,219,-1792,2
-2547,-4049,9001,378,162,-1581,2
-2547,-4049,9001,378,162,-1581,2
-2584,-3635,9097,325,98,-1555,2
-1989,-4448,9322,298,108,-1556,2
-1679,-5474,9278,304,188,-1439,2
-1695,-6009,8859,281,224,-1204,2
-1852,-6244,8772,228,181,-929,2
-2057,-5614,8739,138,101,-679,2
-2109,-5419,8782,14,34,-472,2
-2207,-5609,8464,-65,18,-299,2
-2282,-5685,8145,-65,3,-147,2
-2282,-5685,8145,-19,-32,-9,2
-2225,-5240,8032,-19,-32,-9,2
-2408,-4465,8189,5,-78,83,2
-2565,-4353,8146,-4,-121,114,2
-2449,-4802,8118,-11,-146,120,2
-2316,-5259,8080,0,-142,183,2
-2233,-5636,7946,1,-150,318,2
-2317,-5743,7884,-1,-180,494,2
-2423,-5572,7856,-14,-223,674,2
-2616,-5026,7850,-58,-321,825,2
-2616,-5026,7850,-119,-436,913,2
-2739,-3166,8855,-191,-510,929,2
-2626,-5221,8964,-84,-254,843,2
-2626,-5221,8964,-84,-254,843,2
-2628,-5773,8684,-76,-222,1037,2
-2420,-6149,8336,-114,-269,1306,2
-2246,-5973,8321,-174,-362,1621,2
-2246,-5973,8321,-251,-481,1896,2
-2486,-4868,8813,-251,-481,1896,2
-2754,-3049,9363,-331,-595,2006,2
-2690,-2003,9973,-462,-647,1996,2
-3171,-1804,9981,-583,-619,1906,2
-3248,-1989,10092,-618,-551,1767,2
-3136,-2624,9920,-587,-444,1670,2
-3028,-3326,9713,-497,-326,1662,2
-2930,-3346,9980,-381,-199,1733,2
-3131,-2863,9955,-332,-81,1825,2
-3550,-2547,9534,-356,-26,1896,2
-3550,-2547,9534,-356,-26,1896,2
-3858,-2352,8991,-365,-22,1907,2
-3945,-2371,8653,-326,-51,1883,2
-3890,-2376,8687,-245,-88,1847,2
-3791,-2244,8831,-160,-91,1812,2
-3745,-2230,8880,-109,-72,1792,2
-3793,-2149,8922,-78,-58,1773,2
-3835,-2108,8817,-67,-65,1759,2
-3789,-2139,8754,-60,-91,1748,2
-3640,-2092,8646,-60,-136,1761,2
-3640,-2092,8646,-60,-136,1761,2
-3639,-2202,8653,-60,-193,1781,2
-3641,-2225,8804,-42,-235,1807,2
-3762,-1830,8971,-10,-231,1811,2
-3887,-1398,9183,-9,-202,1773,2
-4127,-1034,9198,-31,-175,1695,2
-4301,-811,9066,-47,-152,1586,2
-4486,-646,8859,-54,-142,1456,2
-4277,-745,9050,3,-1,7,2
-4293,-619,8986,12,3,13,2
-4321,-490,8985,26,-3,10,2
-4363,-406,9029,39,-4,-7,2
-4390,-330,9054,47,0,-32,2
-4413,-279,9160,49,7,-60,2
-4427,-126,9213,48,14,-95,2
-4492,205,9383,51,25,-150,2
-4688,768,9635,53,50,-236,2
-4688,768,9635,53,50,-236,2
-4911,1190,9725,61,109,-379,2
-4835,1261,9744,95,192,-560,2
-4955,1222,9207,120,256,-729,2
-4993,1672,9273,202,264,-931,2
-5312,2496,9280,222,235,-1176,2
-5248,4220,10279,208,204,-1506,2
-6457,7086,11027,172,304,-2093,2
-7354,8634,10230,-9,433,-3012,2
-5894,6482,9309,-178,518,-4082,2
-5894,6482,9309,-178,518,-4082,2
-3334,1735,8559,-160,595,-4836,2
-1753,-2863,8013,59,712,-4921,2
-1555,-5289,7487,315,751,-4457,2
-1648,-5997,7343,544,660,-3789,2
-2788,-4552,7416,728,518,-3131,2
-4115,-1196,8288,786,320,-2839,2
-4119,263,9119,626,140,-2952,2
-3097,-149,9842,400,125,-3197,2
-2450,-1850,9832,202,248,-3337,2
-2450,-1850,9832,202,248,-3337,2
-1802,-4433,8813,125,359,-3251,2
-1526,-6284,8452,269,427,-2936,2
-1637,-6580,8508,400,401,-2449,2
-2277,-5480,8636,390,275,-1968,2
-3017,-3949,8746,268,96,-1690,2
-3037,-2952,8955,114,-64,-1613,2
-2898,-2880,9073,30,-127,-1645,2
-2451,-3702,9303,57,-61,-1659,2
-2254,-4774,9151,150,91,-1577,2
-2254,-4774,9151,150,91,-1577,2
-2094,-5467,9152,247,209,-1411,2
-2225,-5643,8935,277,252,-1175,2
-2476,-5350,8761,269,226,-945,2
-2656,-4814,8699,230,183,-784,2
-2536,-4840,8553,171,136,-665,2
-2423,-4930,8526,137,95,-540,2
-2352,-4825,8529,98,64,-401,2
-2537,-4654,8505,19,5,-274,2
-2599,-4677,8517,-64,-60,-181,2
-2599,-4677,8517,-64,-60,-181,2
-2557,-4856,8599,-114,-100,-97,2
-2563,-5024,8459,-113,-94,4,2
-2565,-4984,8492,-63,-62,125,2
-2717,-4864,8438,-18,-34,246,2
-2754,-4786,8368,-12,-28,357,2
-2957,-4222,8220,-36,-61,440,2
-3186,-3623,8130,-77,-145,470,2
-3192,-3199,8475,-105,-229,448,2
-3288,-3127,8773,-119,-263,400,2
-3288,-3127,8773,-119,-252,359,2
-3276,-3512,8865,-114,-252,359,2
-3136,-3952,9022,-93,-208,365,2
-3092,-4372,8946,-89,-172,436,2
-3093,-4549,8750,-122,-174,551,2
-3093,-4727,8452,-169,-215,696,2
-2945,-4722,8331,-223,-295,862,2
-2952,-4633,8443,-276,-386,1043,2
-2798,-4319,8945,-304,-434,1198,2
-2750,-4109,9196,-322,-396,1345,2
-2750,-4109,9196,-362,-369,1441,2
-3184,-3194,9145,-362,-369,1441,2
-3329,-2946,9281,-428,-379,1450,2
-3147,-2971,9261,-434,-364,1421,2
-3196,-3036,9304,-386,-299,1401,2
-3300,-3180,9050,-324,-237,1390,2
-3165,-3583,8785,-268,-230,1419,2
-3174,-3888,8790,-200,-254,1506,2
-3139,-3973,8843,-157,-268,1626,2
-3172,-3881,8910,-162,-278,1763,2
-3172,-3881,8910,-191,-282,1900,2
-3098,-3649,9025,-191,-282,1900,2
-3052,-3552,8935,-232,-284,2028,2
-3006,-3247,9069,-258,-284,2151,2
-3237,-2407,9273,-285,-288,2228,2
-3416,-1385,9693,-335,-300,2204,2
-3836,-768,9730,-401,-277,2081,2
-3927,-894,9438,-443,-254,1906,2
-3984,-1305,9206,-390,-206,1737,2
-3976,-1907,8816,-274,-154,1635,2
-3700,-1907,8664,-134,-105,1613,2
-3700,-2386,8664,-134,-105,1613,2
-3558,-2705,8492,-26,-61,1679,2
-3878,-2906,8075,60,-75,1805,2
-3942,-2260,8310,186,-156,1897,2
-3924,-1542,8776,262,-200,1924,2
-3987,-853,9178,241,-194,1880,2
-4225,-290,9373,158,-164,1794,2
-4587,143,9455,65,-147,1636,2
-4713,210,9345,-26,-141,1434,2
-4719,-47,9024,-78,-135,1232,2
-4719,-47,9024,-78,-135,1232,2
-4492,-519,8811,-62,-117,1069,2
-4339,-1054,8611,6,-107,982,2
-4212,-1448,8524,97,-108,973,2
-4229,-185,9127,13,-1,-12,2
-4229,-185,9127,18,-2,-19,2
-4308,-76,9154,18,-2,-19,2
-4345,86,9114,16,-1,-41,2
-4354,144,9135,18,1,-71,2
-4340,-84,9241,63,26,-112,2
-4086,-58,9107,51,31,-123,2
-4341,3,9195,56,23,-120,2
-4327,145,9278,80,29,-144,2
-4291,318,9390,91,44,-173,2
-4441,468,9440,99,73,-214,2
-4459,570,9402,111,96,-270,2
-4459,570,9402,111,96,-270,2
-4517,619,9466,116,117,-340,2
-4506,697,9462,132,145,-426,2
-4541,1158,9634,163,163,-532,2
-5056,2043,10021,229,210,-716,2
-5357,3335,10323,263,308,-1017,2
-5767,4068,10462,266,419,-1456,2
-5564,4266,10540,211,537,-1960,2
-5347,3613,9686,144,650,-2459,2
-4942,2343,8864,124,714,-2882,2
-4942,2343,8864,124,714,-2882,2
-4290,818,7893,160,725,-3135,2
-3999,-104,7127,238,665,-3205,2
-3901,-691,6602,335,499,-3192,2
-4116,-463,6747,438,280,-3147,2
-4287,1098,7823,526,65,-3192,2
-4388,2404,8924,485,-72,-3410,2
-3923,1572,9215,302,-77,-3696,2
-3148,-332,9196,153,-2,-3908,2
-2469,-2468,9141,86,89,-3933,2
-2469,-2468,9141,86,89,-3933,2
-2117,-3973,8894,28,141,-3711,2
-1958,-4730,8696,-30,134,-3301,2
-2366,-4533,8343,-40,48,-2870,2
-3017,-3882,7886,-37,-112,-2555,2
-3160,-3263,8388,-30,-299,-2419,2
-2718,-3092,9108,-39,-423,-2384,2
-2161,-3446,9918,-81,-414,-2321,2
-1952,-3960,10180,-133,-260,-2181,2
-2090,-4821,9678,-133,-70,-2001,2
-2090,-4821,9678,-133,-70,-2001,2
-1945,-5371,9443,-27,76,-1797,2
-2127,-5542,9152,106,158,-1568,2
-2105,-5347,9064,208,150,-1324,2
-2124,-5239,9278,256,136,-1117,2
-2115,-4868,9360,269,149,-930,2
-2224,-4435,9414,244,175,-778,2
-2476,-3820,9175,174,186,-695,2
-2520,-3795,8970,53,148,-649,2
-2533,-4417,8734,-34,106,-585,2
-2542,-5024,8018,41,62,-111,2
-2708,-4456,7988,74,9,0,2
-2718,-4107,8146,80,-61,76,2
-2940,-3687,8293,52,-131,115,2
-3084,-3544,8591,27,-173,117,2
-3022,-3739,8766,3,-165,110,2
-3022,-3739,8766,3,-165,138,2
-2943,-4042,8779,-15,-137,138,2
-2916,-4323,8726,-34,-123,208,2
-2847,-4497,8702,-65,-132,312,2
-2896,-4273,8508,-90,-151,425,2
-3072,-3706,8464,-84,-210,502,2
-3208,-3147,8790,-52,-252,518,2
-3146,-2903,9071,-53,-249,499,2
-3196,-2924,9178,-69,-214,475,2
-3273,-2986,9126,-60,-180,447,2
-3273,-2986,9126,-64,-160,439,2
-3207,-3308,9077,-64,-160,439,2
-3079,-3777,8967,-72,-146,477,2
-2910,-4061,8939,-62,-139,568,2
-2750,-4134,9164,-90,-152,702,2
-2780,-4167,9096,-135,-156,875,2
-2816,-4165,9198,-162,-155,1036,2
-2590,-4287,9444,-185,-118,1221,2
-2559,-4340,9543,-211,-41,1415,2
-2595,-4278,9363,-266,28,1612,2
-2595,-4278,9363,-342,43,1830,2
-2263,-4433,9133,-342,43,1830,2
-2365,-4182,9014,-387,36,2064,2
-2616,-3193,9389,-455,10,2229,2
-2816,-2437,9555,-587,-19,2294,2
-3251,-2200,9387,-712,-38,2291,2
-3796,-2220,9030,-727,-28,2257,2
-4083,-2440,8871,-652,-29,2180,2
-4090,-2861,8541,-500,-39,2086,2
-3668,-3168,8449,-327,-48,2040,2
-3668,-3168,8344,-191,-61,2084,2
-3561,-3211,8344,-191,-61,2084,2
-3412,-3064,8258,-125,-120,2177,2
-3615,-2612,8403,-70,-193,2268,2
-3957,-1775,8678,-39,-246,2287,2
-4207,-1003,9047,-68,-269,2206,2
-4518,-330,9257,-130,-256,2033,2
-4694,-172,9107,-209,-233,1800,2
-4657,-427,8880,-252,-215,1557,2
-4524,-759,8640,-244,-205,1363,2
-4415,-1172,8545,-195,-213,1240,2
-4415,-1172,8545,-195,-213,1240,2
-4340,-1262,8623,-109,-210,1173,2
-4386,-1209,8691,-17,-176,1134,2
-4557,-1146,8684,49,-132,1092,2
-4632,-1037,8498,92,-112,1037,2
-4214,-677,9037,6,-1,-4,2
-4183,-579,9087,8,-4,1,2
-4183,-579,9087,14,-2,6,2
-4244,-491,9163,14,-2,6,2
-4266,-327,9153,22,9,8,2
-4370,-106,9128,35,27,-2,2
-4442,41,9128,42,34,-37,2
-4462,120,9091,48,39,-84,2
-4505,132,9058,60,49,-138,2
-4492,177,9062,80,56,-200,2
-4512,151,9180,97,59,-266,2
-4485,95,9335,108,67,-333,2
-4485,95,9674,113,91,-411,2
-4521,296,9674,113,91,-411,2
-4761,735,9878,108,145,-532,2
-4917,985,9783,105,200,-703,2
-4814,1091,9736,139,244,-906,2
-5227,1737,9694,233,307,-1138,2
-5654,2586,9598,415,436,-1480,2
-5473,3188,9444,461,483,-1864,2
-5583,3627,9253,441,481,-2310,2
-5304,3253,9127,405,502,-2753,2
-4861,1823,8687,394,541,-3113,2
-4861,1823,8687,394,541,-3113,2
-4439,385,8027,431,579,-3349,2
-3906,-570,7507,485,527,-3419,2
-4139,-289,7180,546,348,-3388,2
-4219,484,7634,631,145,-3439,2
-3806,390,8372,643,18,-3555,2
-3166,-399,8909,637,7,-3622,2
-2825,-648,9973,609,96,-3597,2
-2886,-1405,9712,446,240,-3505,2
-2788,-3052,9026,294,305,-3359,2
-2788,-3052,9026,294,305,-3359,2
-2679,-4018,8548,283,272,-3163,2
-2636,-4186,8413,332,174,-2904,2
-2553,-4034,8654,362,10,-2624,2
-2385,-3735,9326,344,-108,-2365,2
-2458,-3217,9987,266,-100,-2163,2
-2499,-3483,9790,127,-15,-2018,2
-2432,-4243,9466,45,66,-1880,2
-2342,-4882,9146,56,117,-1704,2
-2327,-4749,8968,128,123,-1493,2
-2624,-4316,9241,31,43,-1022,2
-2624,-4316,9241,31,43,-1022,2
-2490,-4596,9321,61,98,-899,2
-2572,-4756,9160,89,175,-756,2
-2553,-4896,8941,90,216,-613,2
-2800,-4557,8525,81,212,-465,2
-2903,-3864,8443,41,116,-381,2
-2903,-3864,8443,41,116,-381,2
-2981,-3591,8281,-29,4,-345,2
-2934,-3780,8365,-51,-77,-343,2
-2666,-4250,8398,-47,-100,-317,2
-2677,-4465,8447,-12,-101,-244,2
-2786,-4338,8517,15,-110,-150,2
-2926,-4347,8590,35,-116,-81,2
-2719,-4418,8786,36,-97,-4,2
-2596,-4716,8695,20,-52,124,2
-2761,-4703,8382,15,-27,279,2
-2761,-4703,8382,15,-27,279,2
-2974,-4193,8164,33,-62,406,2
-3019,-3647,8352,37,-141,481,2
-3250,-2748,8657,23,-215,497,2
-3424,-2309,8975,-41,-267,447,2
-3430,-2627,9165,-97,-268,359,2
-3117,-3445,9200,-104,-213,313,2
-2918,-4074,9090,-86,-156,362,2
-2880,-4534,9016,-87,-139,498,2
-2782,-4926,8818,-138,-163,692,2
-2782,-4926,8818,-138,-185,940,2
-2549,-5510,8750,-202,-185,940,2
-2240,-5927,8800,-258,-165,1244,2
-2133,-5636,8938,-325,-155,1602,2
-2053,-5095,8912,-444,-195,1949,2
-1980,-4236,9262,-583,-250,2230,2
-2045,-3253,9372,-748,-321,2427,2
-2743,-1785,9309,-839,-430,2463,2
-3291,-793,9621,-878,-481,2326,2
-3900,-805,9494,-850,-456,2093,2
-3900,-805,9494,-712,-367,1853,2
-3864,-1356,9579,-712,-367,1853,2
-3833,-2281,9427,-519,-213,1715,2
-3544,-3125,9162,-304,-53,1681,2
-3476,-3623,8718,-169,54,1778,2
-3558,-3873,8355,-114,44,1963,2
-3529,-3460,8622,-86,-61,2155,2
-3646,-2427,9236,-102,-131,2282,2
-3808,-1185,9731,-191,-114,2299,2
-4013,-326,9751,-345,-53,2208,2
-4013,-326,9751,-501,0,2041,2
-4560,-111,9431,-501,0,2041,2
-4759,31,8963,-583,-14,1800,2
-4828,-564,8447,-576,-68,1555,2
-4892,-1344,8117,-464,-119,1352,2
-4382,-1822,8074,-287,-136,1230,2
-4259,-2201,8204,-120,-134,1200,2
-4254,-2090,8443,16,-122,1221,2
-4280,-1897,8595,96,-113,1252,2
-4529,-1622,8603,141,-102,1265,2
-4414,-1001,8967,147,-84,1232,2
-4414,-1001,8967,147,-84,1232,2
-4630,-745,8859,95,-72,1165,2
-4748,-587,8719,28,-102,1066,2
-4279,-87,9248,26,-13,-7,2
-4327,-88,9202,26,-4,-29,2
-4315,-57,9220,34,8,-59,2
-4329,53,9286,48,17,-90,2
-4420,279,9270,59,34,-140,2
-4420,279,9270,59,34,-140,2
-4533,460,9178,68,48,-221,2
-4462,440,9193,80,50,-318,2
-4494,238,9232,99,51,-402,2
-4472,166,9142,121,62,-474,2
-4439,372,9241,139,73,-547,2
-4683,1361,9696,163,71,-646,2
-5101,2732,10031,168,113,-877,2
-5526,3907,10310,145,232,-1295,2
-5552,4114,9879,71,328,-1784,2
-5552,4114,9879,71,328,-1784,2
-5559,3480,9145,28,372,-2299,2
-5010,2038,8606,57,357,-2734,2
-4275,212,8360,155,343,-2987,2
-3810,-586,8116,284,327,-3050,2
-3786,-19,8433,428,285,-3031,2
-4411,1359,8392,499,229,-3075,2
-4591,2294,8366,492,125,-3306,2
-4370,2233,8554,470,42,-3640,2
-3730,975,9048,448,51,-3949,2
-3730,975,9048,452,154,-4134,2
-2754,-574,9523,452,154,-4134,2
-2167,-1798,9771,407,270,-4092,2
-2137,-2315,10036,258,334,-3875,2
-2665,-2483,9104,98,302,-3635,2
-2781,-2597,8755,67,193,-3489,2
-2401,-3586,8823,84,108,-3372,2
-2073,-4277,8776,174,81,-3186,2
-1820,-4716,9162,255,75,-2935,2
-1904,-4999,9326,297,97,-2656,2
-1904,-4999,9326,336,135,-2379,2
-1855,-5243,9294,336,135,-2379,2
-1573,-5474,9302,338,171,-2079,2
-1213,-5284,9572,253,161,-1733,2
-1552,-4693,9432,122,124,-1379,2
-1983,-4435,9170,13,87,-1124,2
-2017,-4740,9113,-62,80,-977,2
-1672,-5325,9270,-69,113,-831,2
-1631,-5659,8963,-48,178,-618,2
-1992,-5385,8717,-12,191,-390,2
-1992,-5385,8500,12,131,-218,2
-2341,-4963,8500,12,131,-218,2
-2480,-4559,8380,-9,50,-106,2
-2494,-4591,8417,-21,-1,-30,2
-2414,-4505,8298,-30,-30,45,2
-2593,-4466,8267,-57,-72,133,2
-2615,-4386,8271,-74,-124,206,2
-2656,-4096,8422,-60,-152,276,2
-2828,-3667,8471,-36,-158,327,2
-3090,-3134,8531,-24,-172,327,2
-3102,-2918,8700,-29,-181,285,2
-3102,-2918,8700,-29,-181,285,2
-3152,-3151,8778,-33,-167,240,2
-3086,-3428,8734,-14,-130,226,2
-3078,-3677,8705,6,-122,251,2
-2888,-3803,8696,-15,-152,326,2
-3257,-3942,8572,-40,-181,413,2
-3229,-3522,8751,-44,-232,467,2
-3287,-3170,9037,-90,-275,489,2
-3326,-3150,9007,-146,-298,505,2
-3085,-3151,9125,-139,-305,519,2
-3085,-3151,9125,-139,-305,519,2
-3188,-3026,9119,-118,-271,533,2
-3195,-3006,9226,-99,-247,549,2
-3069,-3355,9245,-105,-228,577,2
-2863,-3817,9259,-106,-188,651,2
-2812,-4248,9171,-117,-141,778,2
-2604,-4551,9116,-145,-119,956,2
-2421,-5046,9102,-182,-110,1186,2
-2030,-5436,9139,-216,-95,1476,2
-1698,-5115,9194,-252,-76,1819,2
-1698,-5115,9194,-252,-76,1819,2
-2057,-4319,9305,-414,-91,2126,2
-2447,-3662,9004,-519,-152,2326,2
-2592,-3097,9202,-562,-217,2395,2
-2513,-3035,9302,-635,-255,2421,2
-2422,-2829,9565,-664,-261,2453,2
-2648,-2425,9911,-669,-196,2481,2
-3080,-1858,9863,-663,-110,2475,2
-3498,-1738,9573,-631,-35,2419,2
-3871,-1951,9190,-544,37,2345,2
-3871,-1951,9190,-544,37,2345,2
-4140,-2111,8951,-389,125,2252,2
-3905,-2147,8799,-238,178,2165,2
-3923,-2098,8732,-136,201,2134,2
-4004,-1951,8673,-84,176,2133,2
-4143,-1467,8793,-40,134,2116,2
-4455,-1085,8858,-37,103,2058,2
-4512,-520,8920,-83,59,1953,2
-4883,-139,8843,-151,18,1792,2
-5149,3,8690,-211,-36,1578,2
-5149,3,8690,-211,-36,1578,2
-5053,-399,8417,-235,-91,1346,2
-4887,-1001,8252,-197,-120,1169,2
-4632,-1389,8054,-100,-138,1070,2
-4548,-1586,7905,5,-174,1040,2
-4456,-1635,7844,74,-237,1047,2
-4181,-1758,7923,104,-319,1086,2
-4095,-1682,8304,91,-390,1147,2
-4214,117,9227,62,-1,-105,2
-4186,75,9276,64,0,-163,2
-4553,175,9175,113,29,-223,2
-4319,601,8944,100,-14,-312,2
-4319,601,8944,100,-14,-312,2
-4652,966,8980,85,-78,-438,2
-4615,801,9090,20,-185,-616,2
-4371,350,9641,12,-236,-777,2
-4115,317,9883,18,-193,-892,2
-4176,859,10222,39,-87,-1002,2
-4534,2457,10482,67,45,-1186,2
-5408,4375,10626,38,174,-1555,2
-5991,5251,10208,-21,299,-2144,2
-5822,4625,9584,-51,418,-2837,2
-5822,4625,9584,-51,418,-2837,2
-5091,2848,8459,-5,478,-3442,2
-3963,855,7865,120,426,-3813,2
-3085,-989,7691,244,292,-3885,2
-2451,-1866,7781,387,136,-3718,2
-2693,-1368,8543,513,5,-3480,2
-3653,500,9013,464,-80,-3345,2
-3157,525,9736,292,-133,-3417,2
-2703,847,10853,158,-37,-3560,2
-2579,283,10439,-35,222,-3660,2
-2579,283,10439,-35,222,-3660,2
-2569,-1286,9250,-111,402,-3761,2
-1788,-3044,8967,19,456,-3756,2
-1125,-4220,8725,213,456,-3538,2
-1127,-4831,9318,393,406,-3186,2
-1501,-4692,9480,403,373,-2750,2
-1813,-4633,9334,288,307,-2371,2
-2033,-4253,9320,188,220,-2116,2
-1931,-3879,9134,81,117,-1947,2
-1726,-4079,9201,1,40,-1805,2
-1726,-4079,9201,1,22,-1663,2
-1578,-4107,9390,-63,22,-1663,2
-1667,-4667,9065,-106,50,-1507,2
-1804,-4972,9011,-94,50,-1347,2
-1785,-5242,8786,-54,43,-1186,2
-1690,-5175,8672,40,36,-1019,2
-1837,-4904,8872,108,30,-853,2
-1923,-4694,8879,109,12,-711,2
-2012,-4468,9007,64,-15,-591,2
-1929,-4498,9123,5,-13,-500,2
-1929,-4498,9123,-37,25,-400,2
-1935,-4666,8975,-37,25,-400,2
-1892,-4852,8654,-45,52,-289,2
-1846,-5144,8595,-22,46,-145,2
-1907,-5083,8469,-1,26,15,2
-1954,-4856,8452,-4,-25,171,2
-2207,-4536,8361,-26,-73,298,2
-2270,-4224,8297,-9,-122,372,2
-2079,-4497,8641,51,-134,426,2
-2195,-3976,8626,127,-81,526,2
-2195,-3976,8626,85,-152,554,2
-2908,-3456,8569,85,-152,554,2
-2621,-3905,8924,-3,-255,547,2
-2426,-4323,8793,-39,-287,601,2
-2172,-4762,8621,-23,-299,711,2
-1972,-4671,8787,-19,-313,889,2
-2060,-4504,8787,-57,-353,1085,2
-1948,-4541,8872,-103,-410,1266,2
-1714,-4833,8882,-153,-439,1469,2
-1573,-5054,9050,-171,-439,1707,2
-1746,-3527,9285,-221,-463,1930,2
-1746,-3527,9285,-221,-463,1930,2
-2208,-2562,9468,-401,-549,2010,2
-2586,-2212,9334,-580,-632,1977,2
-2835,-2298,9221,-610,-685,1871,2
-2684,-2609,9360,-494,-655,1766,2
-2409,-3132,9409,-318,-548,1726,2
-2312,-3805,9610,-117,-395,1778,2
-2002,-4224,9655,67,-222,1926,2
-1995,-4364,9720,171,-70,2149,2
-1792,-3661,9645,153,21,2404,2
-1792,-3661,9645,153,21,2404,2
-2392,-2895,9314,37,7,2594,2
-2623,-2087,9445,-109,-117,2675,2
-2586,-1633,9705,-244,-235,2655,2
-2628,-1520,9809,-320,-262,2595,2
-2762,-1251,9724,-338,-259,2526,2
-3198,-762,9592,-310,-262,2416,2
-3476,-564,9494,-272,-288,2251,2
-3686,-569,9517,-221,-295,2064,2
-3558,-759,9584,-127,-226,1904,2
-3558,-759,9584,-127,-226,1803,2
-3534,-1002,9628,-51,-119,1803,2
-3479,-1328,9444,21,-10,1742,2
-3450,-1572,9186,97,55,1732,2
-3573,-1560,9168,161,80,1755,2
-3588,-1272,9192,211,95,1772,2
-3645,-613,9379,214,108,1770,2
-3796,68,9517,167,102,1715,2
-4088,388,9475,108,100,1601,2
-4273,808,9426,58,94,1445,2
-4273,808,9426,58,94,1445,2
-4534,874,9062,32,76,1225,2
-4700,726,8964,47,59,974,2
-4418,247,8845,71,58,755,2
-4146,-260,8746,90,56,615,2
-4095,-592,8654,94,37,554,2
-3931,-860,8672,83,0,540,2
-3677,-1122,8706,59,-31,568,2
-3489,-1306,8824,34,-55,648,2
-3812,-419,9320,9,-14,-2,2
-3845,-362,9327,18,-10,-10,2
-3867,-284,9343,26,0,-19,2
-3919,-240,9330,28,4,-35,2
-3895,-211,9311,29,13,-51,2
-3895,-211,9311,29,13,-51,2
-3943,-149,9272,30,25,-69,2
-3920,-198,9182,34,26,-88,2
-3946,-197,9202,47,24,-103,2
-4030,-2,9285,69,29,-127,2
-4073,618,9608,84,48,-186,2
-4506,1529,9859,75,95,-323,2
-4651,1818,9789,48,156,-558,2
-4447,1446,9687,35,215,-799,2
-4589,1405,9255,48,254,-999,2
-4589,1405,9255,48,254,-999,2
-4400,786,9005,93,236,-1169,2
-4511,882,8805,124,193,-1296,2
-4784,1355,8587,125,121,-1456,2
-4661,2250,8963,83,32,-1690,2
-4986,2816,9452,-31,0,-1995,2
-4895,3180,9444,-115,36,-2388,2
-4886,3481,9652,-120,141,-2855,2
-4253,2420,9361,-83,241,-3279,2
-3401,673,9159,25,334,-3563,2
-2846,-80,9367,179,408,-3650,2
-2846,-80,9367,179,408,-3650,2
-2901,-132,9707,287,448,-3616,2
-3232,569,10116,243,457,-3589,2
-3306,559,10043,86,455,-3662,2
-3069,-214,9858,-34,469,-3794,2
-2518,-1622,9275,-63,506,-3857,2
-2001,-2380,9213,27,527,-3763,2
-2237,-2267,9186,131,550,-3596,2
-2511,-2094,9031,197,522,-3493,2
-2511,-2094,9031,205,455,-3451,2
-2277,-2961,8935,205,455,-3451,2
-1816,-4480,8760,279,428,-3330,2
-1447,-5148,9279,434,449,-3072,2
-1445,-5903,8997,490,483,-2706,2
-1580,-6303,8806,513,456,-2322,2
-1874,-5502,8707,518,381,-1978,2
-1853,-4772,8848,436,251,-1739,2
-1529,-4876,8975,301,142,-1536,2
-1482,-5313,8857,204,109,-1315,2
-1482,-5313,8857,137,91,-1085,2
-1569,-5394,8799,137,91,-1085,2
-1560,-5568,8688,53,43,-853,2
-1684,-5412,8705,-25,-10,-606,2
-1908,-5014,8481,-91,-54,-397,2
-2111,-4274,8484,-106,-109,-263,2
-2282,-3943,8551,-103,-138,-207,2
-2292,-3966,8689,-67,-138,-188,2
-2273,-4273,8725,0,-96,-172,2
-2212,-4677,8870,86,-32,-111,2
-2212,-4677,8750,120,21,-12,2
-2276,-4929,8750,120,21,-12,2
-2409,-4969,8364,94,11,111,2
-2437,-4616,8239,47,-71,227,2
-2385,-3938,8349,-30,-184,325,2
-2748,-3288,8553,-94,-270,360,2
-2752,-3153,8908,-114,-287,311,2
-2666,-3425,9085,-95,-250,271,2
-2699,-3712,9164,-68,-198,274,2
-2734,-4168,9166,-50,-156,316,2
-2732,-4405,8997,-47,-140,392,2
-2732,-4405,8997,-47,-140,392,2
-2654,-4631,8733,-64,-148,508,2
-2618,-4646,8520,-90,-194,646,2
-2528,-4581,8392,-127,-282,789,2
-3041,-4308,8338,-159,-376,922,2
-2654,-3657,8712,-158,-474,973,2
-2539,-3543,8979,-193,-546,1012,2
-2321,-3828,9351,-211,-557,1078,2
-2165,-4326,9369,-218,-501,1197,2
-2105,-4748,9360,-216,-430,1375,2
-2105,-4748,9360,-216,-430,1375,2
-1996,-4807,9485,-212,-372,1593,2
-1751,-4612,9961,-242,-320,1833,2
-1767,-4114,10065,-335,-255,2089,2
-1911,-3184,9986,-445,-219,2285,2
-2605,-2648,9440,-565,-240,2378,2
-3061,-2045,9236,-595,-320,2326,2
-3224,-1925,8985,-541,-405,2178,2
-3037,-2328,8925,-439,-455,2023,2
-2851,-2813,9069,-310,-436,1946,2
-2851,-2813,9069,-310,-436,1946,2
-2681,-3056,9189,-197,-368,1964,2
-2868,-3004,9141,-145,-313,2043,2
-2839,-3074,9205,-147,-296,2141,2
-2721,-2975,9305,-160,-269,2250,2
-2824,-2470,9495,-184,-232,2344,2
-2840,-1885,9583,-228,-197,2387,2
-3120,-920,9869,-282,-156,2359,2
-3731,-284,9613,-353,-131,2218,2
-4138,-179,9266,-365,-135,1973,2
-4138,-179,9266,-365,-135,1973,2
-4086,-477,9062,-291,-125,1698,2
-4067,-770,8797,-178,-105,1477,2
-3956,-1025,8589,-76,-135,1323,2
-3951,-1430,8640,20,-174,1230,2
-3699,-1762,8758,107,-164,1201,2
-4243,-2212,8699,177,-116,1221,2
-3749,-1892,8909,258,-78,1229,2
-3832,-629,9274,24,-7,10,2
-3829,-624,9249,30,-11,9,2
-3835,-644,9251,35,-14,9,2
-3815,-616,9261,38,-10,9,2
-3797,-599,9224,40,-3,11,2
-3858,-549,9152,47,-2,12,2
-3846,-429,9206,52,-4,9,2
-3914,-238,9351,53,-5,2,2
-3914,-238,9351,53,-5,2,2
-4037,22,9437,43,0,-36,2
-4156,239,9477,28,10,-99,2
-4132,177,9420,21,33,-179,2
-4053,-11,9272,39,64,-244,2
-3956,-283,9168,67,83,-277,2
-3900,-434,9099,98,84,-279,2
-4067,-209,9019,119,73,-280,2
-4169,245,9099,109,37,-321,2
-4363,888,9464,89,7,-416,2
-4363,888,9464,89,7,-416,2
-4637,1746,9868,73,36,-590,2
-4853,2293,10194,87,118,-856,2
-4916,2736,10468,102,250,-1191,2
-4640,3500,10750,95,400,-1563,2
-5200,3945,9934,-18,527,-1949,2
-6003,3939,9071,-111,550,-2455,2
-5709,2903,8081,-121,465,-3039,2
-4051,990,8159,-70,354,-3455,2
-2988,-606,8009,4,278,-3540,2
-2988,-606,8009,4,278,-3540,2
-2825,-1335,8189,159,234,-3397,2
-3339,-165,8694,324,200,-3235,2
-3948,1948,9438,351,178,-3277,2
-4527,2772,9147,229,136,-3612,2
-3492,2051,9845,135,111,-4097,2
-2380,658,10246,95,198,-4436,2
-1901,-757,10042,76,323,-4550,2
-1609,-2896,9439,129,425,-4505,2
-1526,-4456,9040,264,502,-4268,2
-1526,-4456,9040,264,502,-4268,2
-1560,-5594,8617,414,518,-3907,2
-1613,-6076,8443,558,443,-3481,2
-1545,-5594,8734,648,323,-3061,2
-1594,-4934,9172,582,197,-2715,2
-1349,-4823,9280,401,110,-2419,2
-1154,-4910,9294,229,69,-2133,2
-799,-5274,9225,84,67,-1822,2
-1021,-5334,9096,-9,75,-1488,2
-1255,-5279,8973,-84,49,-1201,2
-1255,-5279,8973,-84,49,-1201,2
-1633,-5006,8720,-97,9,-985,2
-1672,-4669,8708,-50,-45,-858,2
-1420,-4966,9056,17,-67,-745,2
-1307,-5302,9255,89,-16,-594,2
-1404,-5345,9306,139,68,-411,2
-1666,-5106,9146,148,130,-228,2
-1868,-4609,9152,79,135,-86,2
-1966,-4765,8935,-60,111,30,2
-2061,-5009,8565,-141,83,145,2
-2061,-5009,8565,-141,83,145,2
-2159,-4893,8086,-120,49,253,2
-2292,-4607,7901,-69,-37,347,2
-2342,-4444,7986,-42,-147,432,2
-2373,-4223,8266,-41,-246,500,2
-2431,-3717,8498,-74,-329,543,2
-2545,-3406,8754,-104,-387,557,2
-2543,-3466,8870,-114,-371,544,2
-1897,-5434,9061,-132,-306,968,2
-1897,-5434,9061,-132,-306,968,2
-1960,-5790,9011,-176,-302,1239,2
-1513,-5834,9219,-238,-313,1541,2
-979,-5814,9693,-327,-282,1905,2
-1141,-5102,9493,-434,-217,2296,2
-1640,-3857,9077,-537,-202,2587,2
-2500,-2202,8725,-597,-327,2659,2
-3079,-1341,8800,-605,-513,2513,2
-3079,-1341,8800,-579,-626,2257,2
-3182,-1447,9135,-579,-626,2257,2
-2855,-2319,9578,-510,-583,2039,2
-2517,-3396,9712,-381,-422,1972,2
-2455,-4054,9573,-222,-246,2067,2
-2545,-4258,9467,-105,-110,2260,2
-2447,-3939,9355,-51,-29,2488,2
-2346,-3321,9579,-65,12,2710,2
-2532,-2277,9835,-131,47,2868,2
-2964,-1192,9895,-262,42,2911,2
-2964,-1192,10043,-403,13,2809,2
-3300,-492,10043,-403,13,2809,2
-3701,-289,9921,-510,-2,2621,2
-3918,-525,9584,-521,0,2406,2
-4082,-862,9193,-419,27,2194,2
-4125,-1318,8739,-213,76,2018,2
-3805,-1386,8678,38,117,1902,2
-3792,-1496,8779,239,157,1865,2
-4342,-1454,8610,400,167,1846,2
-4205,-752,8946,514,154,1792,2
-4305,-373,9022,520,150,1703,2
-4305,-373,9022,520,150,1703,2
-4486,-75,9080,460,138,1588,2
-4729,98,9049,361,120,1459,2
-4770,260,8989,254,87,1307,2
-4811,157,8883,149,63,1156,2
-4706,-31,8581,47,12,1037,2
-4631,-177,8488,-22,-53,949,2
-4555,-445,8333,-83,-133,917,2
-3889,-346,9327,10,-20,2,2
-3894,-333,9376,17,-18,-1,2
-3857,-308,9448,24,-10,-12,2
-3924,-236,9394,32,6,-21,2
-3939,-168,9294,41,18,-37,2
-3961,-173,9273,45,22,-56,2
-3921,-210,9276,53,20,-72,2
-3949,-108,9367,72,23,-82,2
-3949,-108,9367,72,23,-82,2
-4030,224,9501,81,37,-100,2
-4109,522,9549,72,53,-144,2
-4273,812,9623,80,87,-219,2
-4210,902,9574,63,117,-310,2
-4329,929,9442,53,136,-412,2
-4252,1068,9638,45,145,-523,2
-4563,1556,9859,29,191,-669,2
-3564,2167,10457,-11,280,-857,2
-4888,2768,10007,-120,394,-1054,2
-4888,2768,10007,-120,394,-1054,2
-5453,3436,9552,-152,469,-1431,2
-5826,3308,8713,-108,488,-1990,2
-5030,2505,8487,-109,414,-2515,2
-4193,1530,8630,-124,312,-2866,2
-3818,252,8277,-55,245,-3045,2
-3765,-21,8519,95,219,-3109,2
-4147,-41,8525,266,218,-3145,2
-3742,880,9281,400,224,-3238,2
-3473,2383,10606,379,277,-3397,2
-3473,2383,10606,379,277,-3397,2
-3218,2780,11137,144,431,-3630,2
-3570,1592,10165,-110,590,-3924,2
-2849,-614,9308,-150,688,-4203,2
-2321,-2645,8405,-29,760,-4255,2
-1945,-4408,7788,192,750,-4035,2
-1816,-5160,7871,395,618,-3631,2
-2108,-4572,8512,485,401,-3180,2
-2769,-3175,8956,414,221,-2855,2
-2900,-2779,8870,239,101,-2756,2
-2900,-2779,8870,239,101,-2756,2
-2243,-3493,8975,100,27,-2737,2
-1777,-4260,9019,23,41,-2618,2
-1654,-4747,8750,-23,53,-2401,2
-1782,-4910,8620,-42,26,-2164,2
-2072,-4640,8770,-30,-3,-1976,2
-2190,-4551,8624,1,-29,-1853,2
-1898,-5170,8560,88,-31,-1740,2
-1519,-5797,8805,237,23,-1558,2
-1545,-5816,9000,372,111,-1313,2
-1545,-5816,9000,372,111,-1313,2
-1636,-5397,9140,411,153,-1070,2
-1932,-4826,9060,363,158,-873,2
-1901,-4710,9144,262,131,-742,2
-1728,-5172,9010,144,117,-602,2
-1864,-5393,8644,45,86,-431,2
-1862,-5569,8317,-4,17,-258,2
-1850,-5578,8277,-12,-67,-87,2
-1984,-5108,8350,-14,-128,73,2
-2042,-4547,8569,-16,-174,165,2
-2042,-4547,8569,-16,-208,230,2
-2206,-4124,8572,-66,-208,230,2
-2346,-3964,8646,-91,-228,261,2
-2453,-4082,8708,-66,-233,270,2
-2553,-4249,8724,-25,-227,286,2
-2604,-4249,8752,17,-222,306,2
-2371,-4628,8801,10,-226,366,2
-2163,-5030,8738,-26,-230,500,2
-2068,-5040,8772,-62,-238,689,2
-2191,-4895,8859,-111,-251,891,2
-2191,-4895,8859,-161,-262,1062,2
-2230,-4689,8970,-161,-262,1062,2
-2179,-4244,9044,-182,-250,1207,2
-2550,-3635,8870,-197,-254,1307,2
-2721,-3008,8953,-195,-304,1321,2
-2630,-2824,9217,-216,-347,1290,2
-2682,-3169,9326,-207,-324,1265,2
-2792,-3470,9205,-157,-250,1272,2
-2806,-3924,9153,-127,-193,1309,2
-2640,-4364,9174,-122,-157,1411,2
-2640,-4364,9174,-153,-128,1594,2
-2366,-4579,9317,-153,-128,1594,2
-2248,-4575,9226,-235,-109,1844,2
-2317,-4347,9104,-352,-139,2116,2
-2590,-3457,9194,-461,-233,2322,2
-2836,-2547,9589,-568,-320,2398,2
-3037,-2148,9610,-640,-353,2352,2
-3116,-2128,9494,-619,-324,2243,2
-3278,-2251,9038,-495,-264,2128,2
-3379,-2464,8644,-302,-246,2028,2
-3205,-2627,8665,-102,-260,1964,2
-3205,-2627,8665,-102,-260,1964,2
-3150,-2595,9004,42,-247,1953,2
-3196,-2179,9288,97,-194,1974,2
-3333,-2084,9337,66,-144,1988,2
-3364,-2130,9291,19,-105,2008,2
-3316,-1874,9369,-16,-67,2035,2
-3158,-1495,9367,-81,-50,2062,2
-3653,-1247,9280,-163,-56,2059,2
-4045,-707,9315,-224,-64,1984,2
-4392,-482,9097,-257,-74,1824,2
-4392,-482,9097,-257,-74,1824,2
-4432,-619,8901,-230,-87,1613,2
-4304,-830,8873,-135,-78,1427,2
-4143,-1070,8761,-3,-52,1309,2
-4191,-1075,8790,125,-15,1240,2
-3875,-232,9186,26,0,-4,2
-3948,-162,9203,29,-12,-15,2
-3884,-135,9290,21,-25,-32,2
-3931,-100,9371,10,-32,-53,2
-3926,-111,9393,1,-28,-72,2
-3897,-116,9404,-1,-23,-86,2
-3878,-135,9450,5,-8,-92,2
-3878,-135,9450,5,-8,-92,2
-3934,-129,9376,14,4,-93,2
-3945,23,9431,26,21,-88,2
-4076,372,9391,46,37,-105,2
-4258,1147,9610,54,53,-181,2
-4654,1627,9610,35,87,-342,2
-4703,2045,9419,18,110,-579,2
-4723,2672,9471,6,106,-860,2
-4833,3340,10163,-28,95,-1189,2
-4779,3713,10959,-89,189,-1563,2
-4779,3713,10959,-89,189,-1563,2
-5241,4034,11071,-169,409,-2004,2
-5598,3844,10421,-187,668,-2550,2
-5397,3066,8608,-105,799,-3146,2
-4088,1493,7244,6,723,-3572,2
-3553,-106,7015,229,552,-3751,2
-2787,-1487,7044,492,339,-3635,2
-3036,-1628,7765,726,171,-3372,2
-2988,-683,9262,774,86,-3115,2
-3672,1893,10412,594,128,-3029,2
-3672,1893,10412,594,128,-3029,2
-4103,3379,10716,210,196,-3277,2
-3738,1910,9955,-155,263,-3689,2
-2638,-21,9828,-296,341,-4005,2
-1811,-2069,9259,-262,448,-4090,2
-1710,-3243,8880,-91,538,-3940,2
-2289,-3639,8348,105,530,-3686,2
-2587,-3535,8081,270,371,-3469,2
-2504,-3422,8447,372,178,-3310,2
-1995,-4182,8890,420,70,-3170,2
-1373,-4905,9550,430,92,-2937,2
-1373,-4905,9550,430,92,-2937,2
-1259,-4984,9907,331,194,-2593,2
-1674,-5038,9151,149,235,-2245,2
-1707,-5332,8792,-1,147,-1967,2
-1578,-5611,8602,-78,34,-1704,2
-1381,-5446,8921,-86,-55,-1420,2
-1738,-5024,8817,-68,-83,-1174,2
-1811,-4810,8798,4,-74,-1026,2
-2037,-5064,8671,147,-28,-941,2
-2037,-5064,8671,147,-28,-941,2
-1767,-4956,8910,295,19,-853,2
-1582,-4965,9152,307,50,-725,2
-1607,-5097,9064,223,61,-539,2
-1844,-5309,8703,111,40,-351,2
-2006,-5501,8273,22,-31,-180,2
-2037,-5278,8202,-43,-150,-23,2
-1952,-5044,8419,-98,-256,120,2
-1865,-4660,8691,-131,-295,249,2
-2108,-4241,8886,-120,-266,353,2
-2108,-4241,8886,-120,-266,391,2
-2330,-3809,9000,-67,-193,391,2
-2428,-3475,9012,-7,-110,390,2
-2718,-3172,8980,14,-78,372,2
-2914,-3103,8956,6,-87,321,2
-2865,-3261,8983,-4,-107,267,2
-2709,-3536,9056,-16,-107,249,2
-2770,-3920,8973,-34,-100,280,2
-2733,-4303,8792,-58,-108,355,2
-2670,-4356,8679,-81,-137,466,2
-2670,-4356,8679,-100,-194,587,2
-2718,-4173,8627,-100,-194,587,2
-2697,-4107,8788,-122,-246,706,2
-2845,-3525,8933,-155,-285,814,2
-2949,-3172,9064,-198,-324,850,2
-2852,-2792,9291,-200,-341,837,2
-2822,-2744,9597,-180,-305,809,2
-2719,-3105,9656,-191,-256,810,2
-2612,-3856,9732,-195,-192,864,2
-2280,-4437,9732,-197,-114,1003,2
-2215,-5051,9713,-216,-22,1232,2
-2215,-5051,9713,-216,-22,1232,2
-1879,-5118,9768,-286,57,1522,2
-2171,-4996,9341,-462,87,1866,2
-2920,-4086,8470,-618,-59,2118,2
-2656,-3773,8721,-692,-277,2193,2
-2550,-3413,8794,-689,-383,2250,2
-2664,-2976,8989,-662,-454,2277,2
-2449,-2989,9304,-606,-447,2269,2
-2356,-3251,9381,-503,-343,2301,2
-2356,-3251,9369,-362,-195,2378,2
-2461,-3359,9369,-362,-195,2378,2
-2872,-2801,9335,-210,-38,2443,2
-3396,-2151,9146,-121,41,2437,2
-3547,-1751,9077,-102,39,2351,2
-3650,-1856,8901,-97,4,2238,2
-3456,-1842,8932,-54,-32,2158,2
-3360,-1657,9159,14,-31,2121,2
-3550,-1521,9202,61,6,2097,2
-3840,-1375,9058,100,50,2063,2
-4180,-1308,8836,143,77,1995,2
-4180,-1308,8836,143,77,1995,2
-4308,-997,8780,177,62,1894,2
-4433,-836,8616,168,9,1769,2
-4387,-988,8443,136,-73,1649,2
-4262,-1061,8520,129,-148,1553,2
-4204,-1282,8501,144,-185,1493,2
-3907,-373,9346,16,-23,-10,2
-3927,-317,9314,13,-15,3,2
-3927,-317,9314,13,-15,3,2
-3944,-269,9329,0,-15,14,2
-3936,-248,9248,-9,-15,22,2
-4029,-202,9133,-10,-14,27,2
-4054,-120,9095,-4,-18,22,2
-4065,-44,9114,5,-25,6,2
-4043,13,9219,14,-30,-7,2
-4074,71,9342,17,-32,-22,2
-4108,118,9416,13,-28,-37,2
-4133,375,9399,10,-12,-56,2
-4133,375,9399,10,-12,-56,2
-4260,632,9337,1,-10,-99,2
-4237,617,9373,-5,-11,-167,2
-4174,581,9401,9,0,-230,2
-4232,686,9422,30,20,-294,2
-4419,1495,9877,48,47,-395,2
-4930,2538,10189,18,98,-603,2
-5069,3321,10114,-35,166,-943,2
-5191,3570,9751,-104,221,-1345,2
-4984,2894,9485,-158,242,-1753,2
-4984,2894,9485,-158,242,-1753,2
-4268,2547,9643,-211,254,-2072,2
-4569,2325,9358,-257,316,-2345,2
-4961,3505,9218,-275,348,-2646,2
-5206,3954,8896,-311,361,-3069,2
-4590,3248,8410,-263,362,-3562,2
-3986,2441,8623,-75,401,-3983,2
-3018,1210,8918,122,483,-4236,2
-2767,65,9315,260,568,-4298,2
-2865,-680,9327,332,631,-4242,2
-2865,-680,9327,332,631,-4242,2
-3058,-1286,8938,384,670,-4159,2
-2864,-1344,9079,407,638,-4094,2
-2309,-1357,9719,341,594,-4003,2
-2488,-2087,9103,185,560,-3875,2
-2336,-3007,8863,98,483,-3754,2
-2146,-3811,8586,72,410,-3604,2
-1844,-4614,8539,115,326,-3398,2
-1654,-5379,8438,178,263,-3106,2
-1769,-5369,8518,254,194,-2769,2
-1769,-5369,8518,254,194,-2769,2
-1907,-5076,8678,294,109,-2464,2
-1926,-4749,8950,296,63,-2225,2
-1860,-4850,8925,285,54,-2022,2
-2003,-4402,8731,291,28,-1847,2
-1898,-4515,8782,298,-18,-1706,2
-1931,-4932,8715,335,-36,-1557,2
-1978,-5139,8761,404,-34,-1411,2
-1829,-5166,8949,423,-36,-1265,2
-1611,-5186,9025,376,-42,-1080,2
-1611,-5186,9025,276,-69,-875,2
-1591,-5045,9026,276,-69,-875,2
-1557,-4908,9040,156,-98,-673,2
-1850,-4841,8775,56,-120,-497,2
-1893,-4923,8748,24,-120,-361,2
-1951,-4969,8822,39,-102,-244,2
-2068,-5134,8697,39,-98,-131,2
-1999,-5227,8492,21,-129,-21,2
-2128,-4959,8350,32,-168,90,2
-1990,-4656,8445,44,-216,196,2
-1990,-4656,8445,23,-248,305,2
-2129,-4518,8669,23,-248,305,2
-2342,-4260,8792,4,-249,388,2
-2368,-4017,8992,-32,-254,445,2
-2472,-3779,9114,-98,-277,493,2
-2520,-3731,9114,-156,-273,518,2
-2573,-3779,9168,-178,-255,535,2
-2543,-4057,9119,-166,-225,568,2
-2501,-4291,9067,-134,-199,632,2
-2392,-4599,8974,-124,-188,740,2
-2392,-4599,8974,-135,-205,898,2
-2347,-4810,8798,-135,-205,898,2
-2367,-4794,8464,-183,-268,1094,2
-2433,-4560,8421,-197,-362,1266,2
-2213,-3921,8876,-155,-430,1392,2
-2173,-3182,9531,-149,-423,1478,2
-2181,-2529,10308,-312,-383,1532,2
-2263,-2697,10365,-589,-324,1584,2
-2443,-3399,9651,-733,-197,1649,2
-2525,-3912,9920,-708,-73,1734,2
-2672,-4320,9504,-623,27,1838,2
-2672,-4320,9504,-623,27,1838,2
-2604,-4283,9323,-542,75,1968,2
-2922,-4138,9131,-481,65,2110,2
-3056,-3865,8773,-430,-3,2212,2
-3071,-3297,8526,-396,-120,2271,2
-3117,-2707,8645,-387,-255,2285,2
-3054,-2350,8827,-394,-349,2254,2
-3026,-2190,9075,-404,-379,2208,2
-2992,-1950,9509,-410,-340,2164,2
-3117,-1776,9722,-414,-253,2108,2
-3117,-1776,9722,-414,-253,2108,2
-3457,-1768,9647,-429,-149,2044,2
-3473,-1622,9734,-403,-51,1973,2
-3864,-1714,9349,-320,50,1893,2
-4028,-1555,9123,-194,131,1786,2
-4164,-1655,8926,-116,157,1671,2
-4046,-1935,8665,-75,131,1593,2
-4018,-2231,8315,-37,73,1565,2
-3952,-2423,8081,6,-14,1582,2
-3945,-2374,8121,50,-98,1620,2
-3945,-2374,8121,50,-98,1620,2
-4164,-265,9090,-12,-17,-56,2
-4135,-289,9122,-10,-18,-70,2
-4103,-351,9111,8,-6,-80,2
-4077,-309,9195,17,-3,-92,2
-4077,-309,9195,17,-3,-92,2
-4047,-297,9193,22,-12,-94,2
-4084,-211,9323,26,-25,-96,2
-4216,-1,9469,45,-15,-109,2
-4289,532,9553,33,0,-169,2
-4466,996,9607,-1,20,-274,2
-4801,1451,9540,-25,50,-441,2
-4874,1627,9375,-28,94,-676,2
-4186,1794,9742,-52,133,-891,2
-4639,1378,9293,-87,176,-1059,2
-4639,1378,9293,-87,186,-1251,2
-4779,1362,8963,-86,186,-1251,2
-5125,1751,9043,-84,167,-1477,2
-5178,2770,9275,-113,122,-1774,2
-5274,3087,9090,-152,77,-2158,2
-4746,2306,8883,-150,71,-2561,2
-4090,1281,8949,-62,106,-2875,2
-3789,-31,8977,51,174,-3012,2
-4060,-501,8470,164,198,-3036,2
-3815,11,8848,266,142,-3070,2
-3815,11,8848,248,101,-3126,2
-3342,787,9866,248,101,-3126,2
-3553,1179,10141,119,164,-3229,2
-3395,34,9836,-14,286,-3385,2
-2902,-1475,9476,-14,406,-3506,2
-2480,-3390,9050,81,514,-3473,2
-1959,-4559,8721,221,545,-3224,2
-2181,-4210,8671,315,469,-2844,2
-2734,-3202,8834,315,306,-2527,2
-2956,-2734,9010,231,163,-2376,2
-2956,-2734,9010,155,97,-2340,2
-2791,-2756,9028,155,97,-2340,2
-2565,-2700,9353,91,95,-2326,2
-2519,-3078,9054,-6,89,-2276,2
-2377,-3393,8943,-43,68,-2218,2
-2438,-3847,8651,-44,59,-2133,2
-2321,-4250,8556,7,34,-2039,2
-2115,-4656,8697,97,39,-1893,2
-2220,-4989,8456,236,75,-1715,2
-2054,-4759,8733,388,114,-1541,2
-2133,-4759,8967,458,166,-1365,2
-2133,-4491,8967,458,166,-1365,2
-2501,-4348,8846,428,180,-1224,2
-2470,-4198,8837,369,146,-1132,2
-2589,-4086,8707,285,59,-1072,2
-2425,-4526,8652,194,-39,-1025,2
-1990,-4845,8888,124,-114,-926,2
-1609,-5115,9065,61,-136,-734,2
-1794,-5117,8758,17,-116,-501,2
-2069,-4904,8711,17,-103,-304,2
-2342,-4685,8633,39,-120,-166,2
-2342,-4685,8633,39,-120,-166,2
-2237,-4652,8883,73,-138,-88,2
-2031,-4721,9186,58,-122,9,2
-2128,-4661,9187,11,-97,154,2
-2404,-4353,8921,-6,-79,282,2
-2632,-3980,8895,-14,-86,356,2
-2727,-3661,8824,-65,-137,387,2
-2786,-3682,8815,-122,-193,399,2
-2695,-3795,8779,-134,-224,418,2
-2651,-3533,8969,-111,-238,455,2
-2651,-3533,8969,-111,-238,455,2
-2730,-3028,9206,-99,-246,472,2
-2888,-2831,9382,-113,-237,462,2
-2964,-3038,9383,-128,-202,437,2
-2801,-3600,9193,-112,-138,439,2
-2487,-4174,8822,-67,-147,956,2
-2589,-3571,8846,-72,-186,1094,2
-2589,-3571,8846,-72,-186,1094,2
-2671,-3147,8857,-81,-219,1183,2
-2740,-3026,8940,-83,-229,1222,2
-2615,-3231,9017,-79,-234,1251,2
-2408,-3656,9180,-98,-239,1328,2
-2244,-3973,9421,-113,-224,1469,2
-2098,-4244,9741,-138,-177,1657,2
-2377,-3838,9597,-195,-117,1868,2
-2816,-3369,9525,-256,-99,1984,2
-2595,-2715,9622,-352,-119,2025,2
-2595,-2715,9622,-352,-119,2025,2
-2894,-2337,9357,-414,-150,2021,2
-3201,-1716,9181,-389,-178,1941,2
-3316,-1819,9235,-334,-194,1813,2
-3220,-2295,9123,-249,-162,1711,2
-3200,-2654,9114,-145,-97,1673,2
-3188,-2816,9060,-59,-28,1700,2
-3322,-2863,8885,-23,4,1764,2
-3315,-2812,8959,-26,-5,1841,2
-3361,-2457,9034,-43,-32,1902,2
-3361,-2457,9034,-43,-32,1902,2
-3501,-1745,9186,-80,-64,1913,2
-3784,-1068,9285,-156,-116,1853,2
-3997,-818,9416,-222,-162,1722,2
-3934,-707,9418,-212,-154,1546,2
-3993,-800,9379,-162,-90,1380,2
-4016,-1000,9068,-94,-6,1241,2
-3979,-1282,8803,3,42,1143,2
-4007,-1361,8658,93,46,1095,2
-4033,-1555,8551,150,20,1072,2
-4033,-1555,8551,180,-20,1073,2
-3816,-1789,8598,180,-20,1073,2
-4195,-39,9006,18,-10,3,2
-4134,-26,9075,47,2,-56,2
-4134,-26,9075,47,2,-56,2
-4138,53,9157,57,5,-81,2
-4169,124,9257,58,6,-113,2
-4181,177,9270,59,20,-153,2
-4180,346,9321,67,36,-198,2
-4180,346,9321,67,36,-198,2
-4370,611,9510,67,59,-263,2
-4449,1013,9547,56,79,-362,2
-4805,1840,9621,53,116,-524,2
-5186,2489,9396,56,153,-783,2
-5136,2616,9096,42,153,-1108,2
-4892,2103,8938,45,138,-1415,2
-4792,1551,8676,51,116,-1645,2
-4584,781,8467,67,75,-1802,2
-4584,781,8467,72,31,-1894,2
-4266,1166,8980,72,31,-1894,2
-4881,1935,9098,26,6,-2031,2
-5017,3154,9529,-29,7,-2312,2
-5328,3547,9463,-109,42,-2743,2
-4680,3053,9370,-149,92,-3223,2
-3946,1702,9527,-130,159,-3595,2
-3165,104,9332,-86,248,-3736,2
-2701,350,10076,-2,340,-3700,2
-3604,1110,9975,-44,435,-3673,2
-3604,1110,9975,-169,450,-3782,2
-3699,610,9358,-169,450,-3782,2
-2927,-423,9328,-246,453,-3893,2
-2587,-1444,9226,-263,464,-3876,2
-2426,-2398,8717,-178,441,-3769,2
-2227,-2865,8860,-24,431,-3634,2
-1952,-3723,8955,161,476,-3464,2
-1789,-4403,9166,359,561,-3250,2
-1816,-4844,9358,483,642,-2973,2
-2060,-4971,9192,507,671,-2673,2
-2060,-4971,8754,455,614,-2426,2
-2358,-5205,8754,455,614,-2426,2
-2151,-5632,8395,425,502,-2235,2
-1762,-5592,8383,424,389,-2011,2
-1773,-5414,8225,387,267,-1753,2
-1867,-5187,8173,332,119,-1513,2
-1801,-5123,8551,283,17,-1313,2
-2014,-4826,8477,221,-57,-1155,2
-1923,-4875,8557,155,-140,-1026,2
-1840,-4916,8732,122,-174,-884,2
-1829,-5094,8766,105,-161,-729,2
-1829,-5094,8766,105,-161,-729,2
-1917,-5422,8682,112,-125,-568,2
-1780,-5546,8805,149,-92,-392,2
-1758,-5417,8761,166,-51,-195,2
-2054,-5392,8353,139,-60,-2,2
-2184,-5176,8195,93,-136,142,2
-2227,-4887,8187,42,-246,250,2
-2244,-4593,8240,-15,-361,355,2
-2236,-4199,8736,-61,-433,435,2
-2346,-3863,8932,-98,-423,500,2
-2346,-3863,8932,-98,-423,500,2
-2688,-3477,9042,-124,-383,521,2
-2620,-3448,9109,-144,-345,513,2
-2693,-3713,9151,-151,-317,524,2
-2671,-3891,9177,-147,-291,557,2
-2689,-4095,9141,-144,-277,618,2
-2626,-4378,9165,-132,-257,711,2
-2623,-4564,9068,-135,-234,831,2
-2542,-4877,8891,-171,-240,982,2
-2413,-5115,8868,-204,-260,1180,2
-2413,-5115,8868,-204,-260,1180,2
-2141,-5088,9007,-234,-283,1422,2
-2094,-4524,9425,-277,-281,1672,2
-2568,-3486,9139,-399,-326,1861,2
-2709,-3047,9243,-535,-425,1926,2
-2612,-2810,9537,-607,-465,1939,2
-2676,-2177,9889,-621,-409,1932,2
-3084,-1780,9652,-642,-334,1865,2
-3233,-1946,9401,-602,-278,1755,2
-3266,-2446,9237,-469,-211,1651,2
-3266,-2446,9237,-313,-128,1612,2
-3345,-3092,8989,-313,-128,1612,2
-3273,-3615,8756,-163,-54,1652,2
-3379,-3672,8593,-56,-46,1753,2
-3363,-3165,8784,-26,-94,1863,2
-3419,-2695,8925,-95,-184,1935,2
-3314,-2283,9113,-189,-251,1963,2
-3275,-1777,9474,-270,-263,1953,2
-3400,-1333,9538,-339,-241,1897,2
-3591,-1313,9507,-376,-200,1811,2
-3591,-1313,9507,-376,-200,1811,2
-3816,-1359,9400,-350,-153,1693,2
-3842,-1611,9219,-279,-115,1574,2
-3850,-2056,8940,-174,-92,1491,2
-3718,-2380,8652,-54,-88,1461,2
-3518,-2608,8646,86,-94,1484,2
-3351,-2703,8804,219,-72,1564,2
-3548,-2404,8935,315,-21,1651,2
-3695,-2013,8979,334,5,1701,2
-3850,-1496,9071,272,-17,1694,2
-3850,-1496,9071,272,-62,1629,2
-3998,-1012,9280,164,-62,1629,2
-4064,-820,9311,43,-91,1530,2
-4112,-751,9239,-52,-107,1418,2
-4170,-836,9153,-103,-114,1307,2
-4121,-945,9069,-98,-108,1214,2
-3986,-1186,8997,-53,-100,1161,2
-4077,-314,9135,27,-6,1,2
-4054,-356,9172,25,-15,-12,2
-4088,-397,9230,25,-20,-25,2
-4088,-397,9230,26,-18,-34,2
-4047,-454,9211,26,-18,-34,2
-4060,-466,9212,30,-10,-37,2
-4067,-401,9243,41,-10,-31,2
-4066,-321,9314,47,-9,-32,2
-4107,-262,9355,45,-4,-41,2
-4071,-262,9361,45,6,-54,2
-4106,-130,9318,45,11,-73,2
-4168,-126,9285,38,10,-97,2
-4132,-156,9256,42,17,-124,2
-4132,-156,9256,62,42,-148,2
-4119,267,9335,62,42,-148,2
-4473,929,9379,98,72,-214,2
-5843,3911,9409,180,190,-769,2
-4364,-69,8449,544,105,-1912,2
-4085,-271,8851,621,69,-1886,2
-4621,1233,9127,588,46,-1935,2
-4621,1233,9127,588,46,-1935,2
-4634,4045,10395,397,20,-2176,2
-5686,6069,10429,39,40,-2693,2
-5240,5026,9912,-253,71,-3421,2
-3690,1942,9444,-288,198,-4020,2
-2623,-556,9248,-131,375,-4216,2
-1812,-1552,9171,48,456,-4073,2
-2246,-1499,9117,182,469,-3769,2
-2885,-1016,9135,230,461,-3537,2
-3243,-242,9751,242,481,-3497,2
-3243,-242,9751,242,481,-3497,2
-3304,-59,9644,190,535,-3576,2
-2846,-1272,9165,176,559,-3685,2
-2434,-3170,8845,269,555,-3667,2
-2214,-4463,8897,409,508,-3480,2
-1920,-4715,9628,472,450,-3174,2
-2324,-4606,9282,392,392,-2846,2
-2214,-4899,8886,317,315,-2579,2
-1843,-4892,8868,373,282,-2304,2
-2110,-4277,8755,483,284,-2036,2
-2110,-4277,8755,483,284,-2036,2
-2336,-3972,8762,544,258,-1855,2
-2210,-4264,8877,548,219,-1747,2
-1948,-5015,8818,547,202,-1593,2
-1887,-5386,8913,535,186,-1361,2
-1864,-5536,8937,448,141,-1080,2
-2188,-5133,8866,317,91,-815,2
-2300,-4566,8648,194,18,-620,2
-2468,-3716,8646,108,-59,-500,2
-2626,-3109,8612,40,-130,-475,2
-2626,-3109,8612,40,-130,-475,2
-2569,-3480,8729,-4,-177,-504,2
-2283,-4322,8952,-6,-171,-489,2
-2115,-4986,8982,10,-125,-375,2
-2005,-5400,8874,18,-76,-177,2
-2175,-5551,8543,26,-40,59,2
-2514,-4579,8299,40,-67,246,2
-2699,-3438,8373,10,-163,341,2
-2892,-2907,8639,-26,-254,343,2
-2884,-2846,9102,-44,-267,296,2
-2884,-2846,9102,-44,-267,296,2
-3005,-3372,9028,-42,-215,259,2
-2930,-3771,9047,-14,-171,275,2
-2932,-4000,9081,-6,-169,345,2
-3109,-3762,9043,-49,-205,430,2
-2997,-3626,8904,-105,-249,494,2
-2927,-3596,9046,-112,-260,557,2
-3001,-3242,9184,-135,-261,607,2
-3049,-3188,9245,-183,-269,648,2
-3108,-3168,9086,-235,-280,678,2
-3108,-3168,9086,-235,-280,699,2
-3116,-3194,9151,-256,-307,699,2
-3024,-3421,9125,-287,-324,734,2
-3116,-3668,9049,-295,-339,786,2
-2691,-3540,9366,-323,-351,866,2
-2585,-3458,9510,-417,-357,1004,2
-2694,-3483,9420,-508,-357,1149,2
-2646,-3595,9399,-564,-351,1280,2
-2697,-3638,9200,-588,-345,1405,2
-2610,-3693,9042,-561,-343,1524,2
-2610,-3693,9042,-497,-332,1650,2
-2573,-3952,8980,-497,-332,1650,2
-2470,-4097,9054,-421,-299,1797,2
-2306,-4110,9107,-348,-255,1968,2
-2176,-3671,9254,-282,-203,2151,2
-1953,-3168,9462,-285,-145,2329,2
-2431,-2615,9403,-330,-86,2469,2
-3083,-1889,9311,-395,-76,2506,2
-3637,-1523,9267,-488,-139,2428,2
-3241,-1732,9510,-540,-222,2298,2
-3241,-1732,9510,-556,-242,2210,2
-3006,-1663,9698,-556,-242,2210,2
-3363,-1367,9603,-556,-222,2136,2
-3707,-1393,9280,-532,-215,2045,2
-3932,-1597,8951,-454,-227,1925,2
-3731,-2002,8919,-343,-202,1829,2
-3416,-2304,8830,-233,-134,1825,2
-3712,-2109,8784,-156,-98,1869,2
-4171,-1672,8870,-86,-114,1852,2
-3882,-1400,9001,-53,-118,1797,2
-3882,-1400,9200,-72,-91,1750,2
-3766,-1208,9200,-72,-91,1750,2
-3944,-869,9425,-99,-47,1701,2
-4247,-685,9292,-127,-12,1626,2
-4046,-457,9065,3,-14,-13,2
-4028,-515,9123,7,-21,-14,2
-4028,-516,9145,10,-21,-9,2
-4028,-516,9145,10,-21,-9,2
-4110,-410,9105,10,-28,-8,2
-4077,-346,9224,1,-41,-17,2
-4059,-351,9238,-3,-42,-31,2
-4043,-394,9254,-1,-31,-40,2
-4043,-416,9231,8,-18,-43,2
-4042,-357,9250,20,-5,-40,2
-4055,-251,9308,29,3,-40,2
-4155,-100,9323,28,11,-54,2
-4198,9,9269,15,12,-84,2
-4198,9,9269,15,12,-84,2
-4284,94,9236,7,3,-124,2
-4273,131,9292,4,-7,-166,2
-4200,130,9323,15,4,-200,2
-4284,508,9536,40,29,-244,2
-4526,1198,9826,52,67,-331,2
-4869,1757,9950,51,131,-515,2
-4857,1690,9979,70,219,-764,2
-4564,1671,9974,101,321,-1001,2
-4862,2184,9872,120,410,-1232,2
-4862,2184,9872,120,410,-1232,2
-5175,2195,9454,86,428,-1530,2
-5150,3299,9818,84,429,-1910,2
-5715,4258,9644,47,469,-2378,2
-5401,4084,9358,31,506,-2951,2
-4376,2891,9355,22,582,-3427,2
-4131,1670,8487,25,612,-3722,2
-3767,333,7718,104,559,-3899,2
-3574,1159,8085,265,466,-4010,2
-4149,2574,8526,361,357,-4188,2
-4149,2574,8526,361,357,-4188,2
-3558,3064,9566,398,337,-4513,2
-2933,2007,10364,352,500,-4824,2
-2221,-597,10072,310,754,-4987,2
-1647,-4437,8950,413,979,-4908,2
-880,-7198,8226,626,1071,-4410,2
-1333,-7380,8382,869,985,-3677,2
-2177,-5870,8641,813,701,-3027,2
-2407,-5438,8669,520,393,-2598,2
-2120,-5212,8781,252,156,-2326,2
-2120,-5212,8781,252,156,-2326,2
-1907,-4845,8778,117,40,-2100,2
-1731,-4744,8715,65,-6,-1894,2
-1787,-5121,8630,50,-28,-1692,2
-1780,-5483,8623,65,-33,-1492,2
-1639,-5773,8632,144,-21,-1257,2
-1855,-5667,8685,262,42,-993,2
-2237,-5139,8577,365,97,-772,2
-2317,-4564,8825,426,111,-646,2
-2414,-4437,8750,431,118,-555,2
-2603,-4402,8495,277,17,-392,2
-2514,-4618,8401,165,-81,-312,2
-2467,-4906,8298,74,-165,-194,2
-2373,-4992,8435,4,-216,-48,2
-2455,-4584,8672,-52,-234,107,2
-2683,-4000,8701,-90,-227,212,2
-2794,-3787,8718,-91,-196,256,2
-3098,-3436,8568,-53,-157,257,2
-3098,-3436,8568,-20,-166,218,2
-3163,-3358,8549,-20,-166,218,2
-3109,-3653,8726,-7,-182,196,2
-3073,-3925,8839,-6,-183,227,2
-3083,-4206,8870,-28,-189,293,2
-3028,-4376,8882,-65,-201,383,2
-3020,-4472,8691,-111,-227,511,2
-2976,-4469,8569,-139,-276,645,2
-2876,-4443,8518,-161,-331,778,2
-2855,-4508,8606,-194,-393,919,2
-2855,-4508,8606,-235,-447,1075,2
-2573,-4767,8691,-235,-447,1075,2
-2371,-4943,8883,-265,-472,1274,2
-2088,-4767,9517,-284,-455,1507,2
-2117,-4375,9768,-387,-391,1741,2
-2445,-3693,9739,-543,-346,1928,2
-3023,-2817,9225,-681,-373,2015,2
-3087,-2283,9245,-750,-457,1984,2
-3152,-2394,9099,-714,-496,1894,2
-3198,-2658,9156,-580,-477,1813,2
-3122,-3187,9093,-402,-395,1778,2
-3122,-3187,9093,-402,-395,1778,2
-3053,-3556,8904,-248,-305,1821,2
-3084,-3393,8806,-164,-282,1917,2
-3000,-1756,9511,-405,-467,2213,2
-3205,-1657,9556,-445,-402,2200,2
-3306,-1237,9991,-436,-317,2134,2
-3449,-1111,10084,-425,-190,2029,2
-3449,-1111,10084,-425,-190,2029,2
-3705,-1319,9708,-397,-64,1917,2
-3900,-1356,9373,-323,18,1805,2
-4100,-1383,9004,-243,19,1704,2
-4368,-1324,8859,-178,-27,1596,2
-4240,-1305,8779,-116,-76,1481,2
-4181,-1579,8641,-47,-106,1401,2
-4084,-1787,8738,43,-125,1367,2
-4041,-1720,8843,119,-118,1362,2
-4118,-1701,8835,152,-105,1359,2
-4118,-1701,8835,152,-105,1359,2
-4162,-1683,8910,142,-100,1359,2
-3966,-1696,9010,116,-100,1367,2
-3926,-1568,9132,73,-101,1396,2
-3887,-1328,9184,9,-95,1412,2
-3980,-521,9068,4,-26,3,2
-3966,-509,9131,6,-27,0,2
-4027,-482,9080,10,-29,-3,2
-4024,-386,9121,16,-31,-14,2
-4024,-386,9121,21,-28,-31,2
-4104,-254,9209,21,-28,-31,2
-4120,-195,9201,29,-23,-59,2
-4167,-95,9321,34,-25,-91,2
-4200,-124,9391,28,-26,-130,2
-4139,-253,9333,27,-15,-160,2
-4104,-309,9286,34,-7,-177,2
-4110,-230,9273,51,0,-180,2
-4176,446,9670,68,10,-205,2
-4632,1338,9828,60,47,-313,2
-4632,1338,9828,47,102,-525,2
-4815,1990,9841,47,102,-525,2
-5034,2522,10068,62,194,-832,2
-5144,2900,9786,103,270,-1209,2
-4955,2383,9680,149,321,-1581,2
-4957,2490,8993,169,336,-1898,2
-5197,2816,8714,170,273,-2262,2
-4971,3207,8944,116,178,-2658,2
-4610,2384,9054,43,135,-3032,2
-3952,1232,9273,47,224,-3320,2
-3952,1232,9334,133,328,-3530,2
-3943,1981,9334,133,328,-3530,2
-4189,3054,8861,193,385,-3815,2
-4104,3817,9071,251,357,-4233,2
-3541,4097,9876,279,350,-4695,2
-2738,3220,10487,246,459,-5137,2
-2104,1006,10679,186,686,-5439,2
-1507,-2602,9934,149,924,-5469,2
-708,-5871,9270,266,1104,-5144,2
-643,-7813,8653,499,1153,-4475,2
-1436,-7485,8159,592,969,-3692,2
-1436,-7485,8159,592,969,-3692,2
-1757,-6421,8523,513,632,-3072,2
-1508,-5525,9030,339,396,-2632,2
-1695,-4772,8876,174,256,-2336,2
-1600,-4717,8861,72,167,-2169,2
-1305,-5551,8612,75,130,-2004,2
-1235,-6119,8669,185,138,-1787,2
-1317,-6291,8638,293,150,-1515,2
-1460,-5904,8801,370,123,-1225,2
-1542,-5437,9016,379,101,-960,2
-1542,-5437,9016,379,101,-960,2
-1621,-5102,9245,331,125,-732,2
-1714,-5038,9186,257,190,-530,2
-2073,-4831,8670,169,227,-352,2
-2304,-4926,8342,87,194,-228,2
-2410,-5000,7995,13,108,-123,2
-2402,-4910,7903,-42,-10,-23,2
-2457,-4828,7842,-86,-131,74,2
-2394,-4655,7886,-87,-221,172,2
-2573,-4162,8254,-67,-277,253,2
-2573,-4162,8254,-67,-277,253,2
-2694,-3750,8707,-69,-288,276,2
-2797,-3613,8723,-82,-259,264,2
-2729,-3719,8676,-84,-236,247,2
-2717,-4144,8763,-69,-224,262,2
-2617,-4651,8811,-44,-204,334,2
-2633,-4956,8732,-36,-193,459,2
-2561,-4996,8639,-48,-204,620,2
-2634,-4989,8507,-81,-238,790,2
-2587,-5056,8378,-134,-298,968,2
-2587,-5056,8378,-134,-298,968,2
-2541,-5029,8315,-180,-377,1139,2
-2444,-5085,8109,-185,-459,1313,2
-2060,-4944,8459,-153,-535,1507,2
-2065,-4485,8717,-186,-605,1714,2
-2395,-3827,8935,-275,-686,1875,2
-2402,-3054,9908,-397,-760,1948,2
-2227,-3379,10156,-644,-733,2004,2
-2317,-3802,9511,-722,-646,2092,2
-2321,-4192,9506,-616,-524,2210,2
-2321,-4192,9506,-616,-524,2395,2
-2188,-4604,9439,-450,-401,2395,2
-1676,-4356,9355,-307,-315,2651,2
-2129,-4065,9121,-268,-284,2930,2
-2779,-3145,9125,-263,-335,3094,2
-2797,-1998,9336,-272,-420,3101,2
-2971,-1039,9729,-281,-434,2994,2
-3497,-71,9750,-302,-406,2786,2
-3969,35,9476,-337,-414,2493,2
-3858,-451,9303,-338,-450,2193,2
-3858,-451,9303,-273,-420,1997,2
-3641,-1227,9139,-273,-420,1997,2
-3481,-1733,8957,-166,-339,1919,2
-3415,-1941,8986,-64,-268,1926,2
-3588,-1885,9166,9,-222,1964,2
-3687,-1645,9424,29,-182,2002,2
-3683,-1196,9584,10,-136,2010,2
-3550,-790,9744,-35,-86,1987,2
-3822,-628,9591,-84,-42,1935,2
-3974,-428,9492,-102,-17,1849,2
-3974,-428,9492,-85,10,1727,2
-4145,-358,9275,-85,10,1727,2
-4351,-366,8888,-54,21,1585,2
-4191,-595,8672,-15,-20,1442,2
-4301,-736,8474,21,-116,1350,2
-4315,-714,8726,36,-233,1268,2
-4159,-868,8969,54,-288,1199,2
-3951,-1044,9007,88,-273,1158,2
-3687,-1149,9046,117,-226,1160,2
-3739,-380,9403,0,-26,33,2
-3756,-410,9333,-5,-25,34,2
-3784,-393,9317,-4,-20,34,2
-3772,-367,9220,1,-15,34,2
-3772,-367,9220,9,-16,36,2
-3803,-370,9085,20,-28,40,2
-3803,-370,9085,20,-28,40,2
-3778,-346,9099,39,-33,44,2
-3778,-318,9120,59,-43,50,2
-3846,-190,9215,70,-54,49,2
-3894,-95,9395,64,-62,32,2
-3933,-99,9548,43,-64,6,2
-3883,-175,9590,22,-50,-18,2
-3847,-323,9493,7,-30,-30,2
-3847,-323,9493,3,-15,-29,2
-3796,-342,9359,3,-15,-29,2
-3826,-190,9330,6,-10,-27,2
-3897,165,9506,15,-12,-34,2
-4061,628,9682,12,0,-81,2
-4295,1137,9736,10,44,-186,2
-4475,1377,9525,16,97,-349,2
-4340,1028,9300,37,136,-526,2
-4016,350,9266,75,165,-640,2
-4011,69,9049,98,164,-679,2
-4011,69,8932,86,96,-701,2
-4027,57,8932,86,96,-701,2
-4156,465,9205,76,12,-746,2
-4049,1805,9803,71,7,-880,2
-4752,2951,10207,17,87,-1131,2
-4996,3777,10078,-81,197,-1549,2
-5168,3646,9735,-185,320,-2026,2
-5048,3315,9160,-189,420,-2529,2
-4741,3007,8863,-130,437,-2999,2
-4621,2635,8913,-50,409,-3432,2
-4088,2043,8449,4,350,-3775,2
-4088,2043,8449,4,350,-3775,2
-3600,2116,8878,111,289,-4049,2
-3294,2092,9570,207,315,-4251,2
-3230,1590,10011,233,395,-4426,2
-2845,334,10083,194,552,-4567,2
-2212,-879,9917,160,699,-4597,2
-2011,-1674,9538,89,762,-4478,2
-2160,-2740,8763,7,705,-4293,2
-2020,-3198,8551,16,561,-4097,2
-1889,-3656,8726,54,437,-3869,2
-1889,-3656,8726,54,437,-3869,2
-1636,-4415,8822,109,367,-3628,2
-1451,-5370,8981,232,363,-3364,2
-1341,-6218,9166,396,396,-3058,2
-870,-6664,9504,519,444,-2678,2
-801,-6836,9452,561,478,-2233,2
-1082,-6165,9332,563,481,-1797,2
-1374,-5284,9166,520,437,-1453,2
-1664,-4822,8928,435,371,-1208,2
-1554,-5058,8766,318,312,-1027,2
-1554,-5058,8766,318,312,-1027,2
-1393,-5698,8584,231,280,-821,2
-1483,-5959,8355,178,244,-546,2
-1765,-5807,8322,120,149,-251,2
-2157,-5381,8336,36,40,-15,2
-2356,-4631,8297,-43,-49,138,2
-2471,-3862,8394,-95,-135,197,2
-2459,-3542,8446,-121,-174,200,2
-2506,-3645,8427,-136,-189,192,2
-2471,-4070,8614,-124,-189,213,2
-2471,-4070,8614,-124,-189,213,2
-2633,-4170,8559,-108,-191,265,2
-2667,-3984,8609,-92,-213,322,2
-2807,-3838,8641,-87,-237,367,2
-2773,-4004,8726,-88,-241,417,2
-2740,-4165,8730,-79,-207,497,2
-2797,-4283,8679,-67,-176,593,2
-2757,-4441,8472,-63,-172,703,2
-2629,-4664,8518,-64,-192,854,2
-2543,-4934,8501,-53,-216,1043,2
-2543,-4934,8501,-53,-216,1043,2
-2650,-4844,8590,-35,-260,1240,2
-2420,-4596,8805,-29,-308,1429,2
-2226,-4454,9029,-64,-345,1615,2
-2090,-4496,9467,-209,-361,1813,2
-2133,-4368,9239,-342,-376,2018,2
-2416,-3830,9281,-417,-417,2186,2
-2561,-3274,9515,-462,-461,2284,2
-2846,-2560,9818,-495,-466,2308,2
-2924,-2224,9762,-540,-441,2260,2
-2924,-2224,9762,-540,-402,2193,2
-3303,-2222,9628,-527,-402,2193,2
-3089,-2371,9723,-434,-362,2142,2
-3049,-2172,9840,-337,-266,2129,2
-3142,-1798,9957,-310,-166,2145,2
-3394,-1759,9540,-351,-95,2157,2
-3614,-1654,9274,-371,-76,2141,2
-3787,-1686,9019,-356,-73,2107,2
-3785,-1757,8756,-305,-73,2058,2
-3869,-1925,8587,-226,-84,2012,2
-3869,-1925,8587,-138,-96,1976,2
-3688,-1592,8901,-138,-96,1976,2
-3792,-1342,9123,-108,-91,1949,2
-3733,-880,9323,-101,-74,1898,2
-4045,-904,9119,-89,-37,1813,2
-3897,-904,9214,-65,-12,1720,2
-3943,-1085,9072,-50,7,1646,2
-3974,-1349,8835,-31,0,1612,2
-4027,-1631,8647,10,-21,1601,2
-4151,-78,9460,96,-61,3,2
-4097,-10,9479,49,-47,4,2
-4197,290,9583,14,-28,3,2
-4447,678,9589,-3,-17,-30,2
-4593,1137,9711,-12,4,-122,2
-4712,1409,9570,-21,32,-266,2
-4762,1237,9329,-12,56,-426,2
-4591,973,9075,20,70,-575,2
-4591,973,9075,61,61,-673,2
-4350,721,9010,61,61,-673,2
-4439,1980,9742,114,67,-766,2
-5686,4271,10072,116,136,-1037,2
-6102,5879,10114,54,220,-1601,2
-6378,6535,9783,-84,296,-2343,2
-5802,4908,8831,-185,307,-3097,2
-4555,3018,8574,-142,314,-3707,2
-3430,942,8330,-89,304,-3998,2
-2708,288,8658,42,303,-4032,2
-3633,1227,8572,158,299,-3989,2
-3633,1227,8572,158,299,-3989,2
-4144,2640,8945,258,243,-4142,2
-3562,2531,9285,325,254,-4470,2
-2994,1500,9891,360,387,-4785,2
-2251,-800,9579,398,602,-4984,2
-1599,-3085,9024,496,749,-4924,2
-1284,-4764,9016,602,783,-4602,2
-1226,-5803,8880,618,712,-4075,2
-1420,-5586,9010,509,547,-3489,2
-1830,-5166,8941,189,335,-2955,2
-1830,-5166,8941,189,335,-2955,2
-2249,-4336,8400,-28,90,-2623,2
-2157,-3818,8462,-114,-98,-2466,2
-1831,-4459,8584,-149,-208,-2347,2
-1379,-5143,9059,-103,-208,-2172,2
-1359,-5454,9115,23,-98,-1935,2
-1783,-5726,8938,143,-10,-1682,2
-1663,-5796,8970,233,13,-1444,2
-1613,-5752,9133,269,37,-1191,2
-1558,-5536,9294,272,74,-936,2
-1558,-5536,9294,272,74,-936,2
-1810,-5052,9074,186,85,-709,2
-2025,-4796,8720,134,62,-551,2
-2020,-4685,8930,121,37,-453,2
-2231,-4774,8726,97,20,-368,2
-2285,-4778,8597,76,-32,-298,2
-2059,-5012,8654,51,-82,-210,2
-1852,-5298,8678,20,-96,-51,2
-2088,-5260,8429,-19,-94,153,2
-2325,-4718,8214,-31,-128,315,2
-2325,-4718,8214,-31,-128,315,2
-2478,-4039,8411,-53,-200,403,2
-2557,-3640,8712,-124,-274,444,2
-2660,-3791,8906,-186,-320,465,2
-2583,-4293,9044,-185,-309,498,2
-2532,-4496,9017,-131,-256,579,2
-2537,-4582,8955,-93,-218,698,2
-2573,-4618,8859,-103,-215,839,2
-2483,-4491,8700,-158,-244,988,2
-2502,-4317,8581,-202,-276,1140,2
-2502,-4317,8581,-202,-276,1248,2
-2664,-3875,8598,-210,-320,1248,2
-2566,-3489,9008,-232,-378,1308,2
-2449,-3329,9321,-265,-392,1354,2
-2596,-3235,9195,-326,-367,1403,2
-2834,-3219,9117,-359,-367,1436,2
-2857,-3299,9243,-354,-373,1459,2
-2766,-3476,9428,-340,-357,1504,2
-2744,-3597,9480,-354,-321,1584,2
-2644,-3741,9665,-403,-289,1696,2
-2644,-3741,9665,-403,-289,1862,2
-2449,-4060,9628,-486,-253,1862,2
-2401,-3958,9479,-509,-207,2064,2
-2493,-3668,9446,-494,-148,2251,2
-2578,-3506,9238,-464,-102,2403,2
-2749,-3193,9186,-426,-72,2516,2
-3065,-2681,9028,-395,-86,2568,2
-3404,-2111,8939,-372,-150,2535,2
-3590,-2003,8755,-346,-244,2439,2
-3220,-2172,8845,-293,-324,2334,2
-3220,-2172,8845,-235,-353,2287,2
-3132,-2310,9000,-235,-353,2287,2
-3218,-2505,8901,-160,-332,2290,2
-3327,-2606,8852,-62,-310,2313,2
-3263,-2292,9136,44,-264,2343,2
-3207,-1728,9433,106,-192,2374,2
-3442,-1469,9329,97,-144,2401,2
-3846,-801,9358,84,-141,2358,2
-4079,-163,9451,74,-140,2234,2
-4108,342,9632,51,-127,2052,2
-4417,587,9598,14,-66,1836,2
-4380,-801,8519,240,91,1103,2
-4267,-1036,8433,280,54,1097,2
-4269,-990,8457,303,11,1130,2
-4260,-736,8622,302,-27,1157,2
-4342,-370,8885,263,-59,1154,2
-4342,-370,8958,169,-97,1119,2
-4584,100,8958,169,-97,1119,2
-4620,512,9075,63,-149,1012,2
-4582,594,9168,-40,-168,861,2
-4532,477,9103,-114,-152,714,2
-4491,270,8918,-155,-129,573,2
-4552,-64,8691,-163,-126,459,2
-4466,-376,8632,-139,-147,378,2
-4310,-553,8696,-102,-163,333,2
-4192,-17,9279,-4,-16,-67,2
-4151,-123,9232,4,-8,-101,2
-4134,-178,9169,27,-1,-120,2
-4116,-275,9206,45,6,-126,2
-4156,-147,9205,56,9,-125,2
-4177,10,9268,51,-1,-142,2
-4232,193,9430,48,-5,-173,2
-4232,193,9530,52,14,-225,2
-4304,551,9530,52,14,-225,2
-4478,1071,9655,56,51,-325,2
-4804,2072,9853,67,99,-499,2
-5332,2976,9734,67,149,-803,2
-5160,2816,9645,45,191,-1202,2
-4581,2032,9579,25,260,-1527,2
-4890,1941,8669,29,311,-1778,2
-4911,1922,8434,71,271,-2064,2
-4753,2136,8757,47,191,-2333,2
-4546,1593,8768,15,160,-2576,2
-4546,1593,8768,15,160,-2576,2
-4317,2611,9421,97,204,-2834,2
-4721,4010,9762,91,268,-3165,2
-4800,3479,9101,54,299,-3610,2
-3840,1956,9056,83,323,-4027,2
-3378,1214,8853,235,396,-4306,2
-3415,744,8654,332,390,-4453,2
-2827,782,9533,310,298,-4557,2
-2751,709,9857,183,277,-4637,2
-2384,-1123,9303,73,337,-4717,2
-2384,-1123,9303,73,337,-4717,2
-1658,-3287,9187,79,409,-4665,2
-1074,-4815,9274,128,499,-4368,2
-1150,-6323,8699,192,522,-3910,2
-1166,-6558,8752,277,474,-3395,2
-1338,-6793,8632,295,379,-2897,2
-1256,-6832,8592,303,264,-2437,2
-1293,-6232,8762,294,148,-2012,2
-1351,-5475,8945,232,48,-1668,2
-1530,-4810,8855,154,-35,-1432,2
-1530,-4810,8855,154,-35,-1432,2
-1441,-4727,8953,97,-75,-1284,2
-1447,-4924,8919,53,-84,-1146,2
-1476,-5407,8855,26,-84,-982,2
-1397,-5674,8898,16,-89,-792,2
-1545,-5702,8908,10,-83,-576,2
-1671,-5720,8965,-4,-68,-375,2
-1728,-5826,8696,-1,-48,-178,2
-1866,-5600,8428,25,-47,1,2
-1940,-5087,8183,58,-74,153,2
-1940,-5087,8183,58,-74,153,2
-2250,-4025,8189,69,-156,227,2
-2356,-3306,8587,0,-254,233,2
-2403,-3492,8816,-104,-299,207,2
-2543,-3957,8737,-139,-255,188,2
-2504,-4254,8713,-107,-200,209,2
-2525,-4333,8632,-73,-180,269,2
-2480,-4494,8848,-62,-184,356,2
-2384,-4695,8860,-69,-164,465,2
-2426,-4722,8822,-70,-148,590,2
-2426,-4722,8822,-70,-148,590,2
-2450,-4307,8837,-85,-158,712,2
-2733,-3957,8835,-114,-192,800,2
-2733,-3851,8861,-131,-227,849,2
-2667,-3902,8857,-103,-230,894,2
-2784,-4028,8719,-42,-215,946,2
-2640,-4268,8779,-23,-227,1032,2
-2392,-4620,8991,-48,-246,1171,2
-2128,-4899,9270,-108,-253,1373,2
-1865,-5176,9564,-223,-229,1647,2
-1865,-5176,9564,-383,-200,1933,2
-1942,-4298,9558,-383,-200,1933,2
-2407,-2919,9881,-597,-237,2119,2
-2943,-2164,9743,-822,-328,2137,2
-3348,-2002,9469,-893,-390,2021,2
-3339,-2139,9300,-800,-399,1843,2
-3092,-2752,9267,-611,-336,1718,2
-3105,-3104,9194,-389,-232,1681,2
-3182,-3373,8894,-212,-142,1704,2
-3188,-3596,8635,-100,-113,1773,2
-3188,-3596,8635,-44,-116,1870,2
-3184,-3367,8860,-44,-116,1870,2
-3048,-3166,9101,-48,-108,1971,2
-2944,-2647,9474,-90,-86,2070,2
-3226,-1763,9881,-174,-31,2111,2
-3564,-875,9847,-296,21,2048,2
-3870,-831,9443,-431,28,1904,2
-4153,-1195,8998,-467,-10,1712,2
-4021,-1780,8775,-380,-49,1542,2
-3900,-2334,8526,-214,-55,1447,2
-3900,-2334,8526,-7,-43,1437,2
-3756,-2667,8384,-7,-43,1437,2
-3621,-2913,8281,192,-21,1486,2
-3687,-2785,8453,367,4,1570,2
-3774,-2435,8590,445,12,1650,2
-3790,-2158,8682,436,-3,1707,2
-3931,-1734,8852,379,-28,1739,2
-3952,-1148,9014,270,-65,1750,2
-4114,-765,9107,146,-115,1686,2
-4216,-568,9059,20,-169,1579,2
-4244,-579,9065,-69,-203,1453,2
-4244,-579,9065,-69,-203,1453,2
-4370,-519,9007,-120,-197,1326,2
-4340,-640,8822,-145,-192,1205,2
-4393,-801,8762,-143,-209,1099,2
-4344,-845,8768,-111,-226,1020,2
-4029,-382,9304,13,-12,-1,2
-3994,-397,9299,14,-6,-13,2
-3993,-459,9286,14,-9,-15,2
-3993,-430,9302,9,-6,-15,2
-4009,-405,9247,5,-4,-14,2
-4076,-354,9238,-2,-10,-17,2
-4023,-293,9229,-3,-11,-25,2
-4119,-129,9232,4,-4,-40,2
-4168,215,9354,10,2,-70,2
-4168,215,9354,10,2,-70,2
-4363,664,9476,7,16,-138,2
-4536,1201,9662,6,37,-263,2
-4715,1481,9641,13,91,-452,2
-4614,1252,9275,37,142,-664,2
-4433,1131,9214,87,178,-828,2
-4435,1511,9104,117,189,-949,2
-4743,2390,9605,105,159,-1127,2
-5164,3265,10057,36,189,-1423,2
-5357,4212,9810,-84,264,-1863,2
-5357,4212,9810,-84,264,-1863,2
-6254,4632,8664,-205,270,-2444,2
-5631,4730,8204,-265,131,-3149,2
-4441,3078,8092,-259,-9,-3734,2
-3483,1694,8591,-120,-67,-4081,2
-2956,827,9134,109,38,-4222,2
-2846,-407,9394,346,241,-4232,2
-2733,-1555,9450,513,445,-4136,2
-2529,-2157,9555,581,588,-3955,2
-2065,-2721,9815,505,629,-3707,2
-2065,-2721,9815,505,629,-3707,2
-2208,-2663,9876,312,598,-3422,2
-2428,-2581,9482,67,521,-3191,2
-2396,-2781,9116,-142,404,-3059,2
-2273,-3457,8685,-270,276,-2960,2
-2143,-3920,8348,-290,132,-2837,2
-1995,-4074,8451,-217,-3,-2702,2
-1799,-4370,8930,-118,-49,-2542,2
-1752,-4894,8928,-23,-10,-2348,2
-1804,-4892,9152,88,64,-2135,2
-1804,-4892,9152,88,64,-2135,2
-2041,-4578,9053,151,121,-1943,2
-2053,-4688,8927,181,124,-1786,2
-1969,-5172,8937,235,130,-1622,2
-1884,-5312,9001,279,144,-1420,2
-1801,-5215,9189,279,149,-1199,2
-1892,-4965,9172,233,149,-984,2
-2194,-4695,8916,155,125,-825,2
-2063,-4835,8581,109,94,-710,2
-1969,-4736,8553,133,66,-594,2
-2140,-5190,8495,47,-32,-306,2
-2140,-5190,8495,47,-32,-306,2
-2031,-5456,8444,22,-87,-168,2
-1874,-5310,8514,7,-149,6,2
-2167,-4462,8585,-12,-199,170,2
-2484,-3663,8654,-52,-268,246,2
-2598,-3320,8950,-68,-297,230,2
-2598,-3320,8950,-68,-297,190,2
-2569,-3455,9032,-65,-244,190,2
-2664,-3846,8920,-43,-164,182,2
-2626,-4244,8801,-20,-122,221,2
-2589,-4475,8696,-14,-128,301,2
-2411,-4581,8748,-20,-147,426,2
-2502,-4249,8864,-45,-166,569,2
-2675,-3890,8879,-92,-200,669,2
-2702,-3320,9018,-109,-230,709,2
-2788,-2852,9292,-112,-238,707,2
-2788,-2852,9292,-111,-210,660,2
-2992,-2797,9321,-111,-210,660,2
-2992,-3259,9230,-84,-161,610,2
-2885,-3817,8953,-44,-116,612,2
-2846,-4185,8648,-4,-131,685,2
-2688,-4453,8569,-23,-200,814,2
-2433,-4656,8694,-91,-284,993,2
-2055,-4689,9062,-180,-341,1216,2
-1792,-4445,9835,-359,-342,1481,2
-1601,-4534,9970,-549,-297,1761,2
-1601,-4534,9970,-653,-217,2012,2
-1846,-3872,9780,-653,-217,2012,2
-2492,-3391,9393,-676,-144,2144,2
-2781,-3074,9129,-618,-136,2162,2
-2782,-2977,9132,-508,-133,2123,2
-2819,-3041,9262,-361,-92,2088,2
-2953,-2962,9181,-226,-26,2061,2
-3171,-2861,8997,-133,5,2026,2
-3290,-2779,8831,-67,-10,1988,2
-3341,-2577,8768,-22,-56,1950,2
-3341,-2577,8752,5,-111,1924,2
-3450,-2627,8752,5,-111,1924,2
-3322,-2705,8843,42,-136,1912,2
-3212,-2645,9055,96,-108,1938,2
-3292,-2394,9136,133,-55,1976,2
-3388,-1667,9595,134,0,1987,2
-3710,-924,9866,53,64,1932,2
-4009,-585,9686,-62,117,1822,2
-4214,-521,9321,-167,119,1670,2
-4341,-811,8842,-195,94,1510,2
-4472,-1050,8467,-136,42,1362,2
-4472,-1050,8467,-136,42,1362,2
-4381,-1467,8388,-19,4,1241,2
-4077,-1852,8324,114,3,1186,2
-3973,-2165,8299,237,15,1202,2
-3994,-2041,8175,321,14,1265,2
-4381,-1671,8145,348,-45,1313,2
-4191,-1045,8572,326,-122,1309,2
-3927,-416,9343,4,-51,-32,2
-3909,-423,9393,0,-40,-20,2
-3909,-423,9393,0,-40,-20,2
-3970,-396,9308,-4,-26,-5,2
-3997,-378,9251,-7,-18,8,2
-4015,-289,9211,-7,-21,15,2
-4047,-206,9146,-8,-20,12,2
-4168,-185,9158,26,-1,3,2
-3946,-102,9193,12,-3,-16,2
-4104,-181,9107,20,-6,-30,2
-4085,-123,9141,28,-15,-51,2
-3998,-76,9299,31,-23,-70,2
-3998,-76,9299,31,-23,-70,2
-4086,77,9341,28,-9,-90,2
-4145,339,9326,29,-3,-124,2
-4328,942,9535,27,-6,-188,2
-4701,1556,9643,11,22,-332,2
-4736,2126,9754,-9,65,-559,2
-4901,2179,9712,-29,107,-822,2
-4649,2364,9294,-9,144,-1075,2
-5207,3278,9292,59,145,-1384,2
-4155,2331,9180,-21,337,-3114,2
-3632,958,8889,-45,378,-3306,2
-3491,105,8451,-40,355,-3320,2
-3591,-195,7983,28,257,-3307,2
-3279,-168,8303,156,149,-3312,2
-3304,166,9156,263,112,-3332,2
-2914,-372,9737,271,155,-3370,2
-2914,-372,9737,271,155,-3370,2
-2589,-1144,10180,249,280,-3366,2
-2634,-1518,10045,213,408,-3313,2
-2796,-1432,9818,161,461,-3257,2
-3049,-1301,9273,80,401,-3263,2
-2724,-1831,9158,50,326,-3315,2
-2423,-2526,9022,54,294,-3305,2
-2196,-3634,8958,86,284,-3194,2
-1994,-4388,9046,180,321,-2984,2
-2139,-4301,9071,263,361,-2717,2
-2139,-4301,9071,263,361,-2717,2
-2488,-3918,9048,262,359,-2491,2
-2794,-3881,8506,192,297,-2357,2
-2550,-4533,8311,174,189,-2277,2
-2129,-5277,8415,224,119,-2136,2
-1893,-5096,8665,318,83,-1908,2
-1934,-5088,8711,335,54,-1663,2
-1884,-5041,8843,307,25,-1437,2
-1671,-4968,8876,276,21,-1216,2
-1779,-4962,8864,241,31,-991,2
-1779,-4962,8864,188,10,-790,2
-2015,-4936,8734,188,10,-790,2
-1965,-4938,8931,98,-42,-625,2
-1828,-5090,9007,-18,-96,-437,2
-2173,-4908,8629,-86,-149,-273,2
-2358,-4923,8652,-81,-194,-169,2
-2238,-4910,8596,-14,-212,-98,2
-1957,-4954,8744,22,-209,0,2
-1807,-4899,8792,5,-210,160,2
-1960,-4677,8805,-12,-215,340,2
-1960,-4677,8805,-34,-226,474,2
-2336,-4010,8932,-34,-226,474,2
-2566,-3426,9144,-100,-238,515,2
-2767,-2977,9098,-183,-232,504,2
-2939,-3123,9026,-238,-251,460,2
-2860,-3383,9012,-237,-251,418,2
-2682,-3683,9151,-180,-213,418,2
-2760,-3929,9109,-128,-163,467,2
-2784,-3961,8934,-80,-128,539,2
-2775,-3454,9030,-48,-123,615,2
-2775,-3454,9226,-77,-136,675,2
-2871,-3068,9226,-77,-136,675,2
-3104,-2673,9402,-152,-127,694,2
-3145,-2830,9339,-250,-100,680,2
-3308,-3224,8828,-285,-80,675,2
-3269,-3442,8711,-255,-112,676,2
-3074,-3684,8652,-231,-163,710,2
-2879,-3943,8726,-232,-224,795,2
-2599,-4078,9037,-253,-270,921,2
-2243,-4219,9728,-324,-269,1097,2
-2056,-4722,9602,-462,-223,1343,2
-2056,-4722,9602,-462,-223,1343,2
-1998,-5090,9413,-514,-149,1630,2
-2120,-5222,9151,-484,-65,1923,2
-2019,-5059,8961,-430,-26,2200,2
-2068,-4566,8890,-406,-23,2441,2
-2459,-3987,8691,-410,-73,2610,2
-2667,-3432,8623,-414,-169,2689,2
-2599,-2992,8810,-392,-249,2701,2
-2653,-2565,8901,-335,-282,2685,2
-2988,-1927,9058,-262,-280,2626,2
-2988,-1927,9058,-262,-280,2626,2
-3330,-1217,9153,-192,-272,2495,2
-3726,-559,9200,-133,-274,2309,2
-4089,-269,9237,-96,-279,2076,2
-4201,-300,9220,-49,-244,1816,2
-4278,-673,9144,26,-163,1584,2
-4187,-1128,9237,116,-78,1422,2
-3985,-1362,9158,233,12,1345,2
-3984,-1496,9170,317,85,1331,2
-4066,-1365,9242,362,144,1343,2
-4066,-1365,9242,362,144,1343,2
-4305,-967,9249,358,180,1334,2
-4529,-666,9205,308,180,1276,2
-4625,-489,9062,233,144,1174,2
-4530,-585,8976,160,95,1067,2
-4066,-482,9224,24,-17,3,2
-4066,-482,9224,24,-17,3,2
-4043,-460,9214,22,-16,11,2
-4102,-397,9266,17,-18,17,2
-4131,-291,9334,10,-26,18,2
-4193,-218,9336,3,-20,12,2
-4219,5,9298,0,-13,0,2
-4375,343,9334,7,-3,-28,2
-4480,528,9198,13,3,-87,2
-4561,661,9108,17,-10,-171,2
-4413,776,9278,23,-26,-265,2
-4413,776,9278,43,-22,-372,2
-4596,1280,9359,43,-22,-372,2
-4857,1836,9670,42,0,-541,2
-4979,2516,9798,34,56,-784,2
-5484,3923,9889,9,120,-1135,2
-5675,4235,9253,-49,138,-1613,2
-5685,4436,8629,-45,114,-2138,2
-5580,4238,8075,-17,23,-2698,2
-4893,3536,8688,16,-70,-3222,2
-4121,2271,9078,-59,-132,-3605,2
-4121,2271,9078,-59,-132,-3605,2
-3492,552,9416,-55,-78,-3817,2
-2980,-440,9270,-5,69,-3829,2
-3159,-457,8671,94,138,-3784,2
-3077,-200,8726,233,131,-3778,2
-2597,-151,9534,329,135,-3804,2
-2360,-378,10040,328,238,-3794,2
-2554,-1010,9817,257,378,-3772,2
-2323,-2423,9440,216,485,-3734,2
-1840,-3615,9369,230,539,-3557,2
-1840,-3615,9369,230,525,-3241,2
-1867,-4280,8999,213,525,-3241,2
-2481,-3590,8394,183,355,-2941,2
-2337,-3260,8807,130,100,-2779,2
-2137,-3367,9016,71,-36,-2659,2
-1915,-3934,9096,48,-68,-2549,2
-1333,-4889,9361,100,-20,-2371,2
-1317,-5361,9553,200,106,-2090,2
-1531,-5272,9494,210,193,-1759,2
-1852,-5103,9189,143,191,-1470,2
-1852,-5103,9189,94,133,-1244,2
-1868,-4890,8916,94,133,-1244,2
-1971,-4468,8764,100,64,-1085,2
-2120,-4503,8666,163,12,-985,2
-1779,-4491,9085,252,5,-910,2
-1643,-4709,9312,293,53,-800,2
-1450,-4649,9546,273,118,-644,2
-1789,-4829,9275,163,158,-464,2
-2094,-4968,8879,68,147,-313,2
-2026,-5084,8621,-17,86,-183,2
-2026,-5084,8417,-102,-17,-34,2
-1996,-5066,8417,-102,-17,-34,2
-1960,-4835,8327,-158,-130,103,2
-2020,-4431,8452,-163,-209,222,2
-2238,-3994,8590,-105,-229,299,2
-2286,-3670,8876,-42,-208,330,2
-2414,-3690,9046,-21,-156,349,2
-2688,-3559,8884,-25,-114,360,2
-2645,-3507,8876,-25,-117,362,2
-2482,-3474,9025,-40,-115,393,2
-2482,-3474,9006,-92,-108,452,2
-2712,-3774,9006,-92,-108,452,2
-2672,-3955,8892,-115,-114,502,2
-2648,-4061,8892,-132,-136,576,2
-2584,-4022,8721,-173,-186,684,2
-2648,-4126,8776,-189,-230,792,2
-2714,-3851,8688,-184,-262,889,2
-2927,-3302,8727,-183,-320,935,2
-2927,-2644,8908,-177,-374,923,2
-2925,-2271,9257,-173,-406,867,2
-2970,-2283,9389,-183,-392,789,2
-2970,-2283,9389,-183,-392,789,2
-2916,-2682,9629,-191,-346,726,2
-2816,-3168,9534,-197,-259,716,2
-2615,-3615,9527,-200,-201,784,2
-2529,-4199,9521,-218,-154,924,2
-2007,-4788,10000,-282,-91,1151,2
-1993,-5123,9365,-354,9,1484,2
-2535,-4766,8784,-347,36,1795,2
-2819,-3700,8572,-331,-76,1983,2
-2797,-2474,9018,-385,-252,2043,2
-2797,-2474,9018,-385,-252,2043,2
-2822,-1566,9439,-516,-384,1991,2
-2921,-1497,9719,-634,-418,1872,2
-3019,-1777,9657,-668,-356,1754,2
-3341,-2303,9270,-610,-263,1656,2
-3176,-3215,9107,-464,-166,1602,2
-2920,-3798,8957,-273,-67,1641,2
-2997,-3689,8903,-103,-1,1758,2
-3117,-3144,8889,-22,3,1877,2
-3233,-2624,8997,-28,-40,1955,2
-3233,-2624,8997,-28,-40,1955,2
-3303,-2254,9132,-70,-76,1981,2
-3286,-2023,9125,-100,-69,1974,2
-3211,-1848,9311,-134,-34,1967,2
-3464,-1586,9261,-178,7,1948,2
-3578,-1393,9171,-217,21,1902,2
-4072,-1246,8928,-230,19,1812,2
-4139,-1161,8968,-211,-9,1677,2
-4167,-1295,8860,-153,-34,1532,2
-4001,-1259,8840,-46,-40,1411,2
-4001,-1259,8840,-46,-40,1411,2
-4055,-1354,8865,74,-25,1317,2
-4187,-307,9142,12,-3,9,2
-4223,-250,9084,12,-5,3,2
-4181,-57,9125,17,-6,-7,2
-4325,59,9205,17,-10,-29,2
-4368,291,9341,18,-5,-64,2
-4431,464,9318,20,9,-121,2
-4432,728,9330,29,26,-198,2
-4432,728,9330,29,26,-198,2
-4772,1089,9290,60,52,-314,2
-4686,1409,9254,111,89,-477,2
-4856,2362,9626,154,122,-682,2
-5548,3489,9657,160,169,-1005,2
-5291,3994,9735,156,196,-1436,2
-5194,4149,9808,100,249,-1882,2
-5790,3963,9461,63,326,-2351,2
-5858,4631,9445,40,349,-2913,2
-5053,3681,9370,-84,354,-3476,2
-5053,3681,9370,-84,354,-3476,2
-4216,1774,8555,-166,359,-3855,2
-3604,55,7869,-77,332,-3990,2
-3189,-576,7691,128,251,-3939,2
-3061,-357,8224,332,157,-3823,2
-3125,55,9119,450,154,-3745,2
-3273,148,9576,439,207,-3764,2
-2952,-855,9732,332,271,-3817,2
-2574,-3483,8651,-62,296,-3219,2
-2574,-3483,8651,-62,296,-3219,2
-2439,-4034,8187,-56,134,-3054,2
-2075,-4454,8502,38,28,-2869,2
-1951,-4849,8627,155,-1,-2632,2
-1922,-5051,8859,255,4,-2395,2
-1741,-4868,9364,305,35,-2144,2
-1786,-4604,9406,255,80,-1890,2
-1963,-4555,9056,165,87,-1677,2
-1963,-4555,9056,165,87,-1677,2
-1982,-4838,8961,105,59,-1491,2
-1884,-5193,8962,113,47,-1303,2
-1728,-5279,9144,121,62,-1089,2
-1698,-5292,9282,92,102,-863,2
-1818,-5203,9102,33,151,-647,2
-2073,-5184,8712,-12,154,-464,2
-2069,-5036,8554,-16,127,-317,2
-2132,-4558,8543,19,91,-200,2
-2352,-4351,8482,50,69,-125,2
-2352,-4351,8482,50,69,-125,2
-2565,-4280,8377,65,31,-97,2
-2501,-4480,8312,53,-21,-73,2
-2407,-4853,8149,48,-91,-9,2
-2464,-4928,7956,49,-155,97,2
-2738,-4652,8023,62,-226,185,2
-2395,-3859,8751,40,-274,259,2
-2450,-3646,9078,-47,-255,337,2
-2904,-3572,8969,-102,-211,380,2
-3086,-3572,8964,-120,-179,373,2
-3086,-3572,8964,-120,-182,348,2
-3047,-3513,8873,-119,-182,348,2
-2901,-3797,8991,-106,-191,364,2
-2997,-3888,8983,-66,-178,411,2
-2931,-3745,9044,-37,-167,460,2
-2976,-3565,9127,-61,-153,516,2
-3073,-3684,8983,-117,-158,572,2
-2971,-4016,8761,-154,-179,634,2
-2912,-4198,8706,-158,-201,726,2
-2955,-4524,8474,-164,-251,836,2
-2955,-4524,8474,-150,-327,974,2
-2641,-4797,8518,-150,-327,974,2
-2301,-4718,8955,-137,-366,1163,2
-2171,-4181,9555,-192,-375,1382,2
-2201,-3787,9778,-348,-355,1586,2
-2304,-3570,9833,-539,-344,1759,2
-2098,-3547,10169,-676,-302,1917,2
-2415,-3342,9688,-736,-204,2062,2
-2938,-3142,9312,-685,-133,2136,2
-3321,-2842,8903,-559,-90,2117,2
-3321,-2842,8903,-411,-103,2029,2
-3601,-2650,8612,-411,-103,2029,2
-3718,-2499,8408,-248,-161,1916,2
-3507,-2236,8679,-109,-198,1813,2
-3393,-2184,8645,-47,-219,1748,2
-3659,-2298,8482,-32,-246,1722,2
-3505,-2288,8688,-28,-290,1701,2
-3348,-2152,9138,-42,-295,1717,2
-3406,-1884,9371,-106,-273,1739,2
-3579,-1767,9300,-191,-249,1736,2
-3613,-1524,9455,-231,-226,1703,2
-3613,-1524,9455,-231,-226,1703,2
-3775,-1251,9550,-239,-174,1628,2
-3872,-1136,9377,-204,-100,1516,2
-3896,-1222,9265,-133,-15,1397,2
-4095,-1319,9001,-57,45,1288,2
-4125,-1576,8685,14,65,1193,2
-4159,-1898,8518,87,36,1130,2
-4078,-2256,8559,151,-12,1113,2
-4080,-2603,8428,224,-48,1145,2
-3739,-2574,8650,287,-62,1226,2
-3739,-2574,8650,287,-62,1226,2
-3650,-2512,8714,297,-72,1336,2
-3633,-2282,8933,269,-97,1455,2
-3605,-1791,9211,199,-134,1551,2
-3979,-1219,9323,113,-139,1569,2
-4122,-809,9516,23,-135,1516,2
-4256,-391,9519,-58,-136,1401,2
-4381,-198,9492,-131,-140,1257,2
-4436,-247,9363,-186,-144,1096,2
-4051,-632,9142,5,-54,16,2
-4042,-666,9151,4,-53,21,2
-4031,-698,9158,11,-47,31,2
-4012,-708,9091,25,-40,43,2
-4012,-708,9091,25,-40,43,2
-4080,-619,9083,35,-40,47,2
-4094,-585,9153,33,-47,47,2
-4049,-577,9229,30,-51,47,2
-4054,-594,9213,29,-48,47,2
-4101,-519,9126,25,-46,48,2
-4046,-534,9092,23,-45,46,2
-4155,-217,9120,66,-89,54,2
-4281,411,9346,79,-91,25,2
-4281,411,9346,79,-91,25,2
-4475,915,9533,73,-81,-64,2
-4573,869,9476,55,-52,-198,2
-4412,547,9399,47,-19,-329,2
-4240,14,9342,54,13,-414,2
-4065,-370,9259,72,29,-431,2
-4083,-290,9267,86,25,-416,2
-4363,1373,9702,107,21,-464,2
-4363,1373,9702,90,21,-729,2
-5438,3464,9876,90,21,-729,2
-5888,5028,10091,52,47,-1269,2
-5793,5727,10046,-14,128,-1954,2
-5923,5505,9109,-80,230,-2662,2
-5667,4935,8568,-90,222,-3423,2
-4060,3580,8712,-64,164,-4027,2
-3631,1637,9053,-38,167,-4366,2
-2831,-287,8781,44,256,-4482,2
-2396,-1070,8702,208,357,-4370,2
-2396,-1070,8702,208,357,-4370,2
-2806,-399,8898,394,407,-4224,2
-3150,563,9425,491,390,-4196,2
-2986,885,10095,455,391,-4318,2
-2748,-142,10058,286,466,-4480,2
-1913,-2224,9742,155,537,-4537,2
-1270,-4175,9028,139,553,-4389,2
-1015,-5942,8962,208,491,-4000,2
-841,-6870,8965,265,403,-3440,2
-1091,-7016,8939,262,299,-2832,2
-1091,-7016,8939,262,299,-2832,2
-1174,-6831,9008,188,203,-2284,2
-1277,-6007,9092,112,111,-1827,2
-1373,-4844,9381,48,54,-1483,2
-1590,-4124,9354,-23,53,-1264,2
-1710,-3991,9345,-43,97,-1149,2
-1847,-4468,9135,0,187,-1060,2
-1831,-4908,8868,78,246,-945,2
-2026,-5095,8601,154,244,-800,2
-2178,-4792,8502,158,143,-673,2
-2178,-4792,8502,158,143,-566,2
-2063,-4825,8865,103,35,-566,2
-1964,-4911,8659,21,9,-441,2
-2045,-4721,8348,3,-2,-304,2
-2141,-4345,8396,2,-39,-198,2
-2250,-4223,8353,-18,-81,-127,2
-2324,-4225,8401,-40,-117,-85,2
-2327,-4450,8331,-55,-149,-40,2
-2254,-4570,8301,-54,-186,28,2
-2261,-4530,8394,-42,-215,123,2
-2358,-4273,8642,-31,-223,221,2
-2358,-4273,8642,-31,-223,221,2
-2472,-3869,8695,-51,-222,289,2
-2578,-3639,8824,-56,-221,324,2
-2650,-3722,8915,-40,-206,340,2
-2676,-4083,8924,-11,-166,371,2
-2645,-4566,8746,4,-135,441,2
-2573,-4967,8440,0,-162,569,2
-2669,-5125,8194,-23,-248,747,2
-2493,-5294,7990,-50,-378,936,2
-2493,-5294,7990,-36,-480,1149,2
-1966,-5527,8331,-36,-480,1149,2
-1797,-5105,8585,-15,-540,1407,2
-1641,-4612,9552,-107,-576,1659,2
-1710,-4285,9473,-293,-573,1889,2
-2082,-3202,9572,-414,-574,2030,2
-2352,-2188,9814,-431,-569,2026,2
-2355,-1831,10073,-456,-523,1955,2
-2492,-2224,10277,-447,-414,1901,2
-2800,-2718,10052,-373,-227,1885,2
-2800,-2718,9744,-242,-58,1888,2
-3128,-3275,9744,-242,-58,1888,2
-3075,-3748,9340,-126,54,1928,2
-3157,-3824,8885,-103,54,2026,2
-2835,-3571,8816,-169,-76,2165,2
-2683,-3193,9061,-290,-207,2326,2
-2667,-2629,9299,-400,-297,2456,2
-2733,-2067,9560,-470,-320,2528,2
-2937,-1332,10063,-503,-270,2514,2
-3284,-911,10135,-542,-179,2425,2
-3487,-887,10016,-537,-83,2279,2
-3487,-887,10016,-537,-83,2279,2
-3761,-959,9742,-467,21,2115,2
-3951,-933,9346,-358,103,1944,2
-4146,-1155,8866,-235,126,1773,2
-4127,-1542,8475,-108,105,1636,2
-3914,-1795,8611,26,47,1571,2
-3879,-1970,8773,153,23,1566,2
-3964,-1848,8849,273,48,1585,2
-4051,-1501,8882,345,83,1594,2
-4185,-1025,8987,348,87,1572,2
-4185,-1025,8987,348,87,1572,2
-4450,-525,8892,287,52,1498,2
-4091,-600,9200,0,-16,-14,2
-4048,-662,9152,-4,-7,-7,2
-4089,-600,9049,-1,-1,1,2
-4153,-467,8983,5,-3,6,2
-4208,-334,9034,12,-2,-2,2
-4237,-236,9058,18,-8,-20,2
-4237,-236,9058,18,-8,-20,2
-4216,-257,9037,30,-7,-49,2
-4308,8,9291,45,0,-100,2
-4201,119,9464,48,-3,-138,2
-4514,594,9544,47,5,-213,2
-4545,711,9591,45,35,-338,2
-4709,1184,9801,61,103,-502,2
-4992,1384,9511,76,181,-714,2
-4754,1463,9261,103,222,-942,2
-4779,2267,9347,128,250,-1171,2
-4779,2267,9347,128,250,-1171,2
-5613,3824,9126,148,235,-1494,2
-6256,5034,9184,118,184,-2045,2
-5885,5673,9716,44,170,-2745,2
-5268,4577,9774,-58,247,-3423,2
-4342,2193,8840,-113,337,-3905,2
-3840,679,8325,-23,353,-4134,2
-3163,331,8498,181,326,-4195,2
-3089,734,8853,370,298,-4178,2
-3004,1408,10060,452,339,-4219,2
-3004,1408,10060,452,339,-4343,2
-3072,1552,10555,402,483,-4343,2
-2973,-205,10030,262,618,-4494,2
-1783,-2732,9835,227,738,-4506,2
-1629,-4851,9198,238,859,-4251,2
-1519,-6300,8316,285,836,-3778,2
-1660,-6424,8275,337,645,-3228,2
-1801,-6131,8343,301,409,-2726,2
-1904,-5548,8398,205,192,-2324,2
-1954,-4948,8766,84,37,-2035,2
-1954,-4948,8766,-1,-30,-1827,2
-1692,-4882,8812,-1,-30,-1827,2
-1752,-4918,8865,-31,-25,-1642,2
-1746,-5339,8571,-12,-1,-1452,2
-1719,-5708,8524,71,14,-1247,2
-1654,-5820,8568,167,22,-1003,2
-1956,-5373,8664,227,8,-761,2
-2147,-4821,8824,240,-11,-583,2
-2206,-4426,9062,198,-20,-475,2
-2261,-4534,8898,133,-12,-398,2
-2261,-4534,8898,85,-21,-320,2
-2268,-4444,8755,85,-21,-320,2
-2281,-4478,8732,34,-45,-242,2
-2347,-4676,8587,-22,-71,-147,2
-2325,-4840,8422,-50,-86,-43,2
-2396,-4825,8321,-52,-91,75,2
-2640,-4370,8238,-58,-128,180,2
-2898,-3422,8390,-68,-197,213,2
-2946,-2997,8750,-84,-254,164,2
-3055,-3176,8651,-111,-243,85,2
-3055,-3176,8718,-79,-205,32,2
-2992,-3743,8718,-79,-205,32,2
-2973,-4311,8711,-7,-155,44,2
-2883,-4522,8739,43,-125,122,2
-2879,-4733,8642,48,-116,246,2
-2943,-4762,8419,26,-131,392,2
-2896,-4990,8275,-10,-177,543,2
-2670,-5190,8197,-42,-249,714,2
-2300,-5075,8522,-58,-317,918,2
-2172,-4674,8902,-97,-361,1147,2
-2593,-3839,9085,-131,-383,1326,2
-2593,-3839,9085,-131,-383,1326,2
-3017,-2816,9486,-196,-430,1361,2
-2896,-2273,10051,-419,-482,1303,2
-3005,-2321,9586,-569,-485,1218,2
-3001,-2912,9408,-521,-412,1145,2
-2983,-3470,9519,-359,-284,1125,2
-2843,-3907,9401,-210,-142,1177,2
-2897,-4098,9257,-140,-34,1293,2
-2748,-4242,9064,-141,4,1457,2
-2665,-4017,9249,-207,6,1665,2
-2665,-4017,9249,-207,6,1665,2
-2904,-3293,9178,-298,7,1853,2
-3536,-2298,8945,-383,-47,1929,2
-3817,-1692,8898,-437,-155,1857,2
-3745,-1499,9157,-434,-226,1703,2
-3701,-1515,9292,-380,-208,1535,2
-3789,-1677,9306,-317,-143,1389,2
-3773,-1987,9066,-247,-65,1282,2
-3805,-2402,8632,-169,-23,1226,2
-3698,-2548,8483,-111,-30,1222,2
-3698,-2548,8483,-111,-30,1222,2
-3657,-2629,8520,-97,-64,1251,2
-3645,-2846,8505,-113,-104,1303,2
-3583,-3062,8531,-120,-150,1376,2
-3505,-2779,8914,-117,-164,1455,2
-3737,-2177,9147,-137,-160,1493,2
-3915,-1794,9126,-195,-169,1464,2
-3960,-1885,9067,-233,-186,1394,2
-3698,-1872,9105,-210,-175,1331,2
-3893,-1948,8995,-158,-139,1292,2
-3893,-1948,8995,-158,-139,1292,2
-4109,-1970,8888,-98,-111,1251,2
-4010,-2123,8799,-51,-105,1202,2
-3924,-2346,8709,14,-108,1183,2
-3845,-2287,8798,101,-102,1203,2
-3945,-2049,8738,168,-84,1224,2
-3957,-1878,8800,198,-91,1238,2
-4092,-375,9278,2,-38,-3,2
-4065,-380,9288,-1,-36,-10,2
-4025,-431,9266,-3,-34,-12,2
-4025,-431,9266,-3,-34,-12,2
-4022,-468,9248,-1,-29,-4,2
-4025,-471,9233,6,-20,9,2
-4092,-369,9186,12,-18,17,2
-4133,-295,9170,12,-18,17,2
-4114,-222,9085,7,-17,6,2
-4115,-209,9158,8,-24,0,2
-4082,-150,9317,14,-25,-9,2
-4128,-69,9363,25,-14,-20,2
-4241,177,9370,31,-4,-44,2
-4241,177,9370,31,-4,-44,2
-4267,349,9416,26,-4,-90,2
-4359,695,9499,18,10,-160,2
-4486,691,9305,22,31,-256,2
-4418,540,9163,48,48,-359,2
-4228,147,9187,93,65,-427,2
-4135,16,9059,124,76,-441,2
-4256,159,9064,138,55,-450,2
-4234,1143,9622,122,33,-500,2
-4932,2615,10193,54,49,-678,2
-4932,2615,10193,54,49,-678,2
-5318,4048,10299,-48,119,-1048,2
-4667,5119,11196,-120,251,-1577,2
-5910,5998,10161,-208,442,-2171,2
-6928,5185,8451,-216,520,-2949,2
-4944,2809,7942,-130,446,-3711,2
-2909,254,8311,-100,315,-4021,2
-2830,-1477,7978,-42,242,-3908,2
-3166,-1392,7639,105,148,-3640,2
-3777,854,8815,261,30,-3484,2
-3777,854,8815,261,20,-3630,2
-4168,2389,9812,241,20,-3630,2
-3765,2316,10304,86,106,-4003,2
-2934,262,10176,-94,289,-4276,2
-2227,-1542,9389,-158,464,-4373,2
-1607,-3823,9096,-148,549,-4253,2
-1387,-5405,8415,-95,502,-3888,2
-1287,-6098,8328,-30,375,-3361,2
-1707,-5581,8531,4,249,-2828,2
-2280,-4992,8532,-25,106,-2448,2
-2280,-4992,8532,-26,-12,-2255,2
-2446,-4612,8246,-26,-12,-2255,2
-2441,-4304,8294,36,-113,-2184,2
-1779,-4569,8590,130,-154,-2118,2
-1448,-4748,8882,227,-131,-1975,2
-1450,-5193,8969,272,-78,-1767,2
-1379,-5498,9081,268,-56,-1542,2
-1335,-5783,9084,235,-31,-1280,2
-1442,-5741,8959,187,-21,-1009,2
-1485,-5630,8845,113,-51,-761,2
-1485,-5630,8845,43,-106,-527,2
-1639,-5367,8604,43,-106,-527,2
-1730,-4849,8837,2,-157,-371,2
-1802,-4517,8863,-21,-173,-273,2
-1826,-4418,8961,-47,-173,-216,2
-1846,-4661,8846,-39,-144,-160,2
-2087,-4437,8700,25,-119,-111,2
-2098,-4308,8827,91,-110,-87,2
-2055,-4363,8800,97,-102,-56,2
-2018,-4723,8754,65,-87,14,2
-1995,-4563,8776,32,-86,128,2
-1995,-4563,8776,32,-86,128,2
-2286,-4143,8846,-25,-100,244,2
-2441,-3850,8973,-67,-110,293,2
-2364,-3950,9049,-93,-91,310,2
-2370,-4194,9139,-89,-58,358,2
-2480,-4232,8958,-63,-3,437,2
-2360,-4910,8293,-138,-199,772,2
-2360,-4910,8293,-138,-199,772,2
-2276,-5012,8371,-129,-264,934,2
-2093,-5054,8660,-126,-315,1110,2
-1965,-4756,8969,-139,-335,1301,2
-1835,-4199,9600,-216,-346,1485,2
-1721,-3876,9949,-374,-331,1654,2
-1719,-3906,10034,-541,-277,1822,2
-1957,-3836,9806,-640,-186,1983,2
-2343,-3887,9688,-647,-92,2111,2
-2839,-3798,9040,-575,-52,2170,2
-2839,-3798,9040,-575,-52,2170,2
-3171,-3628,8849,-451,-67,2149,2
-2987,-3341,9023,-315,-97,2108,2
-2927,-3019,9166,-229,-103,2082,2
-2879,-2794,8894,-218,-108,2070,2
-3232,-2525,8561,-246,-152,2073,2
-3528,-1978,8696,-232,-230,2020,2
-3628,-1580,8949,-221,-286,1906,2
-3623,-1719,8999,-233,-298,1778,2
-3511,-1941,9014,-205,-277,1680,2
-3511,-1941,9014,-205,-277,1680,2
-3483,-2011,9165,-133,-229,1621,2
-3640,-1915,9261,-56,-153,1586,2
-3720,-1984,9237,10,-74,1549,2
-3669,-2069,9069,91,2,1512,2
-3753,-2132,8967,178,51,1497,2
-3812,-1886,9013,253,74,1489,2
-3891,-1575,8928,299,80,1463,2
-4114,-1399,8815,321,64,1404,2
-4183,-1229,8816,317,25,1324,2
-4183,-1229,8816,317,25,1324,2
-4187,-1087,8833,295,-11,1238,2
-4319,-1061,8745,255,-47,1145,2
-3987,-428,9189,1,-28,11,2
-3984,-422,9158,1,-28,11,2
-3955,-381,9169,15,-18,11,2
-3954,-309,9171,34,-18,14,2
-4027,-247,9229,50,-26,10,2
-4077,-112,9332,48,-33,-4,2
-4058,-20,9267,6,4,-125,2
-4141,37,9212,26,20,-139,2
-4141,37,9212,26,20,-139,2
-4171,248,9248,50,28,-158,2
-4124,470,9412,71,34,-191,2
-4419,1434,9832,80,62,-272,2
-4894,2139,9695,70,110,-472,2
-4961,3022,9980,87,174,-789,2
-5330,3499,10116,82,261,-1167,2
-5312,3440,9675,41,303,-1580,2
-4960,3101,9629,0,304,-1973,2
-5426,3505,9483,-68,345,-2342,2
-5426,3505,9483,-68,345,-2342,2
-5217,3991,9420,-177,315,-2776,2
-5231,5230,9604,-282,311,-3270,2
-5198,5322,9016,-335,352,-3867,2
-4169,3812,8322,-171,423,-4455,2
-3200,2516,8557,117,514,-4860,2
-2843,915,8267,291,572,-5049,2
-2428,-1006,7977,459,533,-5067,2
-2061,-2118,8738,606,455,-4935,2
-1795,-2980,9275,612,435,-4696,2
-1795,-2980,9275,612,435,-4696,2
-1525,-3797,9458,436,401,-4348,2
-1366,-4398,9343,160,284,-3944,2
-1190,-4911,9181,-141,109,-3514,2
-1046,-5815,8723,-351,-41,-3091,2
-830,-6399,8470,-366,-105,-2670,2
-1070,-6198,8604,-241,-123,-2293,2
-856,-6088,8987,-116,-139,-1970,2
-984,-6087,9349,-20,-121,-1659,2
-1051,-5888,9507,82,-45,-1388,2
-1051,-5888,9507,191,58,-1172,2
-1360,-5302,9387,191,58,-1172,2
-1594,-5152,9410,251,116,-1029,2
-1330,-5485,9466,262,158,-897,2
-1246,-5952,9206,223,206,-698,2
-1447,-6209,8586,187,216,-451,2
-1427,-5840,8482,140,153,-206,2
-1576,-4991,8395,51,58,31,2
-2106,-4153,8319,-8,-25,169,2
-2384,-3875,8255,4,-52,174,2
-2384,-3875,8255,4,-52,174,2
-2347,-3968,8432,36,-51,139,2
-2447,-3974,8475,34,-53,131,2
-2606,-3818,8449,21,-81,143,2
-2659,-3628,8606,6,-112,141,2
-2718,-3834,8614,-31,-127,144,2
-2603,-4291,8561,-60,-135,177,2
-2572,-4609,8565,-65,-152,270,2
-2642,-4468,8623,-71,-182,390,2
-2682,-4261,8772,-104,-213,501,2
-2682,-4261,8772,-104,-213,501,2
-2779,-3987,8848,-146,-233,587,2
-2955,-3670,8778,-159,-249,629,2
-2907,-3241,8964,-146,-272,635,2
-2845,-3192,9140,-125,-262,621,2
-3032,-3343,9062,-88,-226,606,2
-3028,-3744,9008,-58,-214,604,2
-2831,-4267,8904,-57,-223,660,2
-2623,-4734,8902,-80,-248,795,2
-2452,-4872,8937,-136,-285,1001,2
-2452,-4872,8937,-136,-311,1224,2
-2353,-4524,9160,-169,-311,1224,2
-2523,-3990,9455,-232,-326,1411,2
-2417,-3695,9781,-328,-343,1550,2
-2277,-2964,10486,-477,-313,1657,2
-2618,-2707,9950,-580,-243,1706,2
-2976,-2579,9456,-522,-169,1674,2
-2969,-2870,9428,-394,-79,1627,2
-3393,-3194,8872,-225,48,1668,2
-3393,-3194,8872,-225,48,1668,2
-3393,-3194,8872,-225,48,1668,2
-3212,-3320,8742,-227,-4,1711,2
-3083,-3254,8774,-233,-37,1800,2
-3223,-2738,8630,-260,-73,1886,2
-3474,-2256,8573,-309,-145,1921,2
-3631,-1349,8868,-334,-218,1861,2
-3707,-879,9127,-361,-247,1716,2
-3858,-973,9067,-374,-235,1531,2
-4019,-1568,8819,-320,-195,1361,2
-4019,-1568,8819,-186,-147,1238,2
-3878,-2069,8781,-186,-147,1238,2
-3572,-2481,8849,-56,-75,1208,2
-3537,-2685,8727,51,-14,1254,2
-3694,-2565,8746,145,32,1316,2
-3796,-2315,8792,192,56,1364,2
-3914,-1853,8933,186,52,1375,2
-3827,-1465,9049,130,23,1346,2
-4234,-1416,8983,57,-1,1290,2
-4297,-1194,8974,6,-34,1197,2
-4230,-1304,8888,-43,-70,1095,2
-4230,-1304,8888,-43,-70,1095,2
-4194,-1533,8879,-81,-111,1021,2
-4097,-1758,8866,-93,-147,989,2
-4140,-1910,8790,-78,-172,983,2
-4037,-2013,8778,-31,-182,998,2
-3932,-1989,8847,44,-165,1027,2
-4100,-379,9176,3,-5,21,2
-4121,-378,9166,2,-4,12,2
-4115,-428,9119,6,0,9,2
-4155,-375,9104,15,-3,5,2
-4152,-391,9108,17,-11,1,2
-4085,-357,9110,18,-13,-3,2
-4119,-381,9090,24,-15,-4,2
-4125,-336,9125,27,-20,-7,2
-4114,-285,9196,33,-23,-6,2
-4181,-43,9324,39,-14,-15,2
-4181,-43,9324,39,-14,-15,2
-4283,123,9311,37,3,-47,2
-4376,445,9347,37,19,-101,2
-4523,855,9250,45,25,-185,2
-4657,1095,9230,56,32,-314,2
-4626,1075,9188,74,51,-470,2
-4723,1032,9101,106,78,-630,2
-4859,1877,8946,148,72,-816,2
-5196,4224,9817,144,47,-1134,2
-6119,6547,10082,54,67,-1704,2
-6119,6547,10082,54,67,-1704,2
-6392,6937,10040,-61,156,-2492,2
-5593,4692,8734,-136,256,-3334,2
-3872,1179,8837,-54,319,-3866,2
-2999,-1244,8940,3,348,-3893,2
-2813,-2897,8146,34,308,-3602,2
-3103,-2755,7801,172,211,-3248,2
-3525,-855,8225,320,101,-2979,2
-3505,1782,9658,373,1,-2972,2
-3887,2455,10278,251,26,-3237,2
-3887,2455,10278,251,26,-3615,2
-3517,1263,10277,89,183,-3615,2
-2913,-607,9822,-9,372,-3900,2
-1797,-2239,9663,19,480,-3959,2
-1791,-4536,9162,31,547,-3755,2
-1775,-5152,8639,111,483,-3359,2
-2202,-4279,8945,181,381,-2943,2
-2764,-3171,8956,217,274,-2695,2
-2683,-2678,9151,169,184,-2616,2
-2260,-3588,9189,118,144,-2569,2
-2260,-3588,9189,139,184,-2444,2
-1873,-4619,9418,139,184,-2444,2
-1813,-5435,9239,201,291,-2221,2
-1853,-5723,8903,252,339,-1932,2
-2118,-5233,8638,256,278,-1650,2
-2244,-4430,8548,235,148,-1452,2
-2065,-4141,8409,230,50,-1317,2
-1953,-4298,8657,260,27,-1204,2
-1810,-4469,8946,287,71,-1079,2
-1945,-4683,8883,277,122,-933,2
-1945,-4683,8883,225,113,-792,2
-2118,-5057,8701,225,113,-792,2
-1904,-5575,8644,194,81,-658,2
-1695,-5783,8536,198,74,-460,2
-1864,-5437,8299,185,36,-228,2
-2160,-4691,8153,135,-69,-47,2
-2415,-4095,8197,70,-215,34,2
-2274,-3829,8477,18,-328,51,2
-2237,-3966,8634,-17,-362,63,2
-2183,-4191,8803,-21,-339,101,2
-2183,-4191,8945,-9,-293,173,2
-2109,-4258,8945,-9,-293,173,2
-2313,-4231,9024,-37,-242,273,2
-2421,-4073,8981,-82,-218,361,2
-2400,-3902,9058,-103,-219,441,2
-2489,-3748,9218,-114,-207,501,2
-2646,-3826,9174,-126,-179,556,2
-2785,-4040,9049,-106,-160,593,2
-2730,-4364,8840,-82,-167,642,2
-2727,-4551,8578,-56,-213,722,2
-2561,-4159,8660,-24,-272,829,2
-2561,-4159,8660,-24,-272,829,2
-2615,-3698,8846,-57,-335,932,2
-2560,-3577,9170,-122,-383,1010,2
-2486,-3304,9489,-177,-375,1080,2
-2746,-2910,9536,-260,-349,1118,2
-2807,-3075,9541,-354,-349,1121,2
-2663,-3375,9525,-397,-353,1152,2
-2590,-3672,9577,-373,-330,1229,2
-2438,-3860,9939,-381,-266,1343,2
-2571,-4145,9361,-409,-187,1492,2
-2571,-4145,9361,-409,-187,1492,2
-2623,-4100,8924,-372,-163,1632,2
-2530,-4193,8848,-322,-172,1772,2
-2238,-4128,8901,-287,-181,1947,2
-2087,-3852,8955,-311,-185,2151,2
-2304,-3616,8950,-361,-215,2337,2
-2504,-3127,9087,-384,-259,2460,2
-2803,-2569,9040,-400,-308,2489,2
-3012,-2145,9012,-375,-349,2436,2
-2854,-1791,9401,-310,-361,2332,2
-2854,-1791,9401,-310,-361,2332,2
-2792,-1676,9714,-261,-301,2238,2
-3026,-1721,9680,-224,-208,2178,2
-3315,-1629,9613,-172,-114,2114,2
-3596,-1511,9531,-137,-39,2032,2
-3736,-1515,9104,-136,-14,1954,2
-3802,-1634,8894,-113,-45,1885,2
-3808,-1508,8965,-38,-64,1826,2
-3863,-1210,8879,46,-59,1767,2
-4189,-935,8779,109,-58,1679,2
-4189,-935,8779,109,-58,1679,2
-4344,-431,8746,144,-92,1553,2
-4323,-278,8813,166,-147,1383,2
-3912,-334,9327,21,-37,-21,2
-3923,-386,9330,29,-28,-28,2
-3900,-422,9381,37,-25,-29,2
-3930,-362,9404,40,-25,-27,2
-3975,-300,9370,34,-18,-29,2
-4011,-235,9369,32,-7,-40,2
-4036,-150,9335,33,7,-53,2
-4041,-66,9287,39,9,-75,2
-4060,-22,9348,54,12,-97,2
-4060,-22,9348,54,12,-97,2
-4112,314,9516,72,26,-119,2
-4309,1200,9844,82,63,-193,2
-4864,1901,9763,83,118,-361,2
-4838,2213,9834,109,189,-623,2
-4721,2254,9865,149,293,-912,2
-4838,2657,9497,201,387,-1180,2
-5333,3933,9275,242,395,-1546,2
-6181,5767,9153,200,351,-2089,2
-6279,6084,8414,108,219,-2849,2
-6279,6084,8414,52,160,-3602,2
-5157,4206,8830,52,160,-3602,2
-3585,1513,8953,48,202,-4026,2
-3006,-211,8864,119,265,-4088,2
-2938,-1171,8569,209,284,-3941,2
-3020,-579,8542,316,244,-3739,2
-3318,693,9328,371,176,-3664,2
-3180,1457,10321,307,164,-3740,2
-3077,1373,10749,167,277,-3927,2
-2711,-363,10323,10,449,-4122,2
-2711,-363,10323,24,625,-4203,2
-1897,-2810,9768,24,625,-4203,2
-1418,-4553,9040,144,733,-4004,2
-1889,-4735,9102,342,459,-3135,2
-1953,-4693,8968,189,267,-2051,2
-2017,-4472,8880,182,252,-1847,2
-2017,-4472,8880,145,207,-1679,2
-2152,-4602,8636,145,207,-1679,2
-2109,-4607,8508,124,139,-1523,2
-2364,-4593,8411,113,40,-1392,2
-1939,-4371,8724,139,-35,-1282,2
-1837,-4213,8938,109,-33,-1136,2
-1965,-4619,8701,38,9,-972,2
-1932,-5101,8499,34,42,-811,2
-1651,-5424,8380,77,58,-612,2
-1838,-5528,8498,115,50,-375,2
-2009,-5300,8590,110,26,-170,2
-2009,-5300,8590,110,26,-170,2
-2303,-4596,8547,77,-17,-32,2
-2227,-4052,8511,6,-91,43,2
-2299,-3628,8493,-62,-161,81,2
-2622,-3373,8390,-121,-237,75,2
-2529,-3674,8550,-158,-317,26,2
-2342,-4131,8524,-155,-352,22,2
-2568,-4523,8693,-70,-348,61,2
-2283,-4439,9011,24,-294,120,2
-2037,-4549,9303,50,-205,240,2
-2037,-4549,9303,50,-205,240,2
-2110,-4473,9212,33,-103,413,2
-2575,-3870,9115,0,-64,559,2
-2890,-3314,9058,-43,-91,626,2
-3232,-2898,8901,-108,-150,601,2
-3195,-3172,8971,-138,-199,522,2
-2955,-3540,8992,-135,-222,485,2
-3095,-3862,8837,-128,-232,507,2
-2968,-3954,8688,-108,-256,551,2
-2806,-3743,8902,-105,-295,629,2
-2806,-3743,8902,-105,-295,629,2
-2761,-3566,9098,-151,-332,712,2
-2651,-3395,9253,-194,-324,805,2
-2707,-3394,9442,-214,-279,887,2
-2684,-3568,9512,-221,-217,959,2
-2493,-3899,9509,-243,-153,1070,2
-2579,-3878,9395,-240,-100,1213,2
-2605,-3674,9291,-230,-66,1357,2
-2769,-3431,9213,-269,-80,1491,2
-2541,-3177,10158,-478,-111,1606,2
-2541,-3177,10158,-478,-111,1606,2
-2688,-3497,9254,-649,-111,1724,2
-2726,-2943,9399,-609,-61,1795,2
-3164,-2553,9322,-580,7,1809,2
-3345,-2498,9131,-587,-1,1788,2
-3445,-2671,9178,-551,-3,1737,2
-3458,-2835,9075,-466,43,1692,2
-3576,-2901,8763,-372,88,1667,2
-3713,-2784,8380,-287,78,1652,2
-3785,-2742,8161,-215,0,1640,2
-3785,-2742,8161,-215,0,1640,2
-3749,-2755,8100,-171,-117,1630,2
-3579,-2706,8248,-131,-208,1641,2
-3651,-2572,8340,-97,-273,1660,2
-3621,-2054,8763,-94,-318,1651,2
-3784,-1702,9074,-137,-323,1602,2
-3850,-1725,9013,-181,-315,1519,2
-3796,-1680,9213,-188,-291,1428,2
-3720,-1840,9151,-164,-240,1355,2
-3632,-2007,9058,-114,-189,1309,2
-3632,-2007,9058,-114,-189,1298,2
-3541,-2179,9056,-65,-138,1298,2
-3692,-2429,8892,-21,-100,1316,2
-3655,-2386,8837,45,-89,1354,2
-4134,-2388,8458,108,-100,1379,2
-3993,-2082,8560,168,-137,1377,2
-3781,-1865,8767,188,-170,1372,2
-3839,-1556,8983,175,-189,1367,2
-4487,564,9328,94,-10,-394,2
-4648,556,9275,129,47,-463,2
-4671,979,9515,143,93,-558,2
-4858,1649,9497,131,131,-706,2
-5166,2707,9471,105,147,-957,2
-5353,2767,9123,59,152,-1303,2
-5447,2361,8516,47,120,-1682,2
-5204,2256,8260,87,43,-2044,2
-5267,2764,8090,128,-86,-2377,2
-5267,2764,8090,125,-219,-2734,2
-5120,2707,8695,125,-219,-2734,2
-4421,2488,9591,105,-231,-3090,2
-4049,2382,9978,74,-73,-3360,2
-4378,1903,9212,60,83,-3645,2
-3620,844,8967,92,125,-3878,2
-2891,172,9326,128,144,-3998,2
-2592,-766,9427,122,194,-3988,2
-2633,-1865,9366,75,245,-3879,2
-2678,-2215,9285,34,274,-3734,2
-2730,-2311,9044,-59,223,-3603,2
-2730,-2311,9044,-59,223,-3603,2
-2511,-2435,9035,-187,94,-3510,2
-2031,-3162,9144,-288,0,-3402,2
-1718,-4104,9080,-291,6,-3213,2
-1660,-4943,8880,-184,67,-2954,2
-1613,-5519,8906,-19,131,-2649,2
-1554,-5732,9196,150,186,-2318,2
-1808,-5580,9381,235,234,-1981,2
-2012,-5111,9170,247,238,-1696,2
-2258,-4463,9219,197,191,-1516,2
-2258,-4463,9219,197,191,-1516,2
-2141,-4289,9133,117,136,-1415,2
-1933,-4643,8988,72,113,-1323,2
-1704,-5173,8828,90,108,-1183,2
-1707,-5469,8745,114,88,-994,2
-1655,-5379,8896,104,60,-791,2
-1777,-5382,8767,56,42,-590,2
-1843,-5079,8695,30,34,-427,2
-1946,-4766,8506,41,55,-295,2
-2200,-4419,8341,79,61,-199,2
-2200,-4419,8341,79,61,-199,2
-2364,-4388,8490,54,4,-102,2
-2364,-4388,8490,54,4,-102,2
-2324,-4868,8385,1,-36,-30,2
-2231,-5344,8301,-30,-75,86,2
-2181,-5198,8127,-45,-124,244,2
-2415,-4064,8222,-51,-214,378,2
-2792,-2622,8760,-89,-320,388,2
-2918,-2301,9175,-150,-345,282,2
-2940,-2672,9109,-142,-248,153,2
-2940,-2672,9109,-57,-128,73,2
-2932,-3403,8933,-57,-128,73,2
-3017,-3864,8784,31,-70,68,2
-2981,-3997,8751,41,-92,113,2
-2775,-4145,8651,-24,-148,185,2
-2665,-4031,8620,-73,-196,284,2
-2878,-3355,8833,-82,-219,387,2
-3050,-2916,9212,-92,-233,403,2
-2918,-2816,9425,-102,-199,379,2
-3184,-2939,9351,-83,-131,342,2
-3184,-2939,9351,-83,-131,342,2
-3189,-3134,9284,-31,-81,291,2
-3166,-3437,9062,12,-73,269,2
-3053,-3664,8957,15,-108,288,2
-2896,-3866,8880,-42,-171,347,2
-2754,-4144,8724,-88,-232,440,2
-2752,-4315,8825,-111,-270,552,2
-2400,-4616,8941,-136,-295,693,2
-2122,-4956,9235,-141,-266,893,2
-2079,-4967,9092,-143,-215,1129,2
-2079,-4967,9092,-143,-215,1129,2
-2218,-4472,8952,-138,-204,1368,2
-2421,-3519,8860,-154,-263,1516,2
-2384,-3007,9160,-192,-346,1571,2
-2304,-2638,9756,-354,-395,1593,2
-2426,-3071,9371,-530,-397,1624,2
-2709,-3182,9282,-550,-386,1632,2
-2821,-3463,9530,-496,-321,1629,2
-2470,-4067,9439,-427,-189,1682,2
-2711,-4208,9065,-346,-73,1802,2
-2711,-4208,9065,-274,-34,1916,2
-2906,-4077,8807,-274,-34,1916,2
-3127,-3667,8397,-217,-70,2004,2
-3388,-2531,8397,-145,-174,2007,2
-3312,-1444,8919,-117,-272,1899,2
-3626,-873,9159,-137,-293,1714,2
-3592,-806,9422,-163,-262,1512,2
-3605,-1051,9511,-128,-171,1306,2
-3840,-1649,9303,-58,-58,1153,2
-3810,-2214,8975,27,32,1061,2
-3810,-2214,8975,80,70,1059,2
-3682,-2860,8714,80,70,1059,2
-3591,-3208,8536,111,63,1120,2
-3452,-3407,8529,114,-6,1225,2
-3314,-3475,8658,94,-85,1350,2
-3211,-2901,9038,80,-127,1459,2
-3418,-2255,9224,27,-130,1508,2
-3589,-1631,9314,-65,-152,1480,2
-3901,-1574,9169,-180,-208,1389,2
-3712,-1403,9206,-233,-268,1274,2
-3712,-1403,9206,-213,-266,1172,2
-3678,-1747,9165,-213,-266,1172,2
-3676,-1946,9062,-136,-218,1117,2
-3672,-2120,8874,-46,-164,1103,2
-4055,-254,9336,35,15,-136,2
-4055,-254,9399,44,20,-153,2
-4134,-50,9399,44,20,-153,2
-4234,720,9690,56,45,-201,2
-4713,1731,9832,62,94,-339,2
-5105,1941,9428,74,153,-598,2
-4616,2032,9669,133,218,-890,2
-4724,2511,9942,177,323,-1149,2
-5224,3371,9156,180,408,-1437,2
-5546,4310,8993,136,384,-1871,2
-6308,4472,8267,84,296,-2458,2
-5352,3433,8093,58,162,-3072,2
-5352,3433,8093,58,162,-3072,2
-4200,2645,8584,21,42,-3493,2
-3979,2388,9058,-1,-18,-3782,2
-3725,1423,8956,-29,-20,-4001,2
-2724,422,9421,4,40,-4151,2
-2508,-281,9954,145,229,-4179,2
-2740,-460,9809,234,399,-4118,2
-2700,-796,9858,234,456,-4085,2
-2475,-1179,10243,170,496,-4059,2
-2146,-2271,10161,53,540,-3984,2
-2146,-2271,10161,53,540,-3984,2
-1755,-3887,9754,-42,594,-3808,2
-1570,-5584,9113,-47,649,-3501,2
-1590,-6514,8618,60,661,-3067,2
-1731,-6148,8601,194,581,-2595,2
-2153,-5197,8657,239,433,-2197,2
-2445,-4437,8673,195,284,-1945,2
-2420,-4118,8810,138,172,-1829,2
-2066,-4413,8967,105,122,-1734,2
-2020,-4549,8865,105,117,-1593,2
-2020,-4549,8865,105,117,-1593,2
-1978,-5073,8816,91,106,-1435,2
-1914,-5629,8729,48,90,-1230,2
-1696,-5639,8696,23,71,-968,2
-1843,-5190,8796,9,65,-704,2
-2097,-4782,8729,-17,65,-503,2
-2257,-4414,8733,-26,78,-394,2
-2268,-4320,8638,-12,97,-337,2
-2328,-4652,8520,12,105,-279,2
-2312,-4993,8425,21,87,-198,2
-2312,-4993,8425,21,87,-198,2
-2347,-4917,8185,-7,32,-90,2
-2425,-4813,8035,-55,-57,17,2
-2358,-4666,7945,-74,-139,114,2
-2634,-4272,8050,-73,-209,200,2
-2770,-3620,8455,-64,-272,226,2
-2854,-3302,8690,-98,-315,214,2
-2852,-3282,8841,-109,-307,175,2
-2965,-3424,8949,-84,-251,136,2
-2909,-3830,9122,-58,-186,133,2
-2909,-3830,9122,-58,-186,133,2
-2854,-4287,9048,-26,-110,177,2
-2914,-4421,8800,-8,-51,275,2
-3153,-4110,8493,-15,-70,371,2
-3159,-3915,8301,-48,-150,422,2
-2930,-3707,8518,-74,-232,463,2
-2977,-3410,8870,-86,-275,500,2
-2940,-3404,8979,-73,-267,527,2
-3198,-3437,9043,-59,-244,535,2
-3058,-3567,9153,-65,-226,537,2
-3058,-3567,9153,-65,-213,576,2
-2879,-3791,9237,-78,-213,576,2
-2794,-3809,9352,-120,-202,660,2
-2977,-3393,9371,-164,-197,744,2
-3090,-2925,9512,-213,-204,778,2
-3159,-2684,9555,-264,-196,786,2
-3479,-2797,9332,-292,-159,756,2
-3323,-3196,9129,-266,-117,718,2
-3102,-3769,9117,-212,-66,740,2
-2906,-4412,8919,-226,-21,869,2
-2906,-4412,8919,-235,-6,1046,2
-2959,-4281,8770,-235,-6,1046,2
-3233,-2616,9409,-381,0,1282,2
-3683,-2745,8690,-400,117,1168,2
-3683,-2745,8690,-400,117,1168,2
-4039,-3023,8446,-315,71,1112,2
-3987,-3244,8035,-225,5,1052,2
-3987,-3244,8035,-157,-80,1025,2
-3778,-3463,7886,-157,-80,1025,2
-3402,-3946,7759,-122,-175,1076,2
-3265,-4229,7715,-104,-271,1215,2
-3199,-4066,7855,-81,-370,1382,2
-3305,-3389,8349,-91,-439,1496,2
-3310,-2652,8859,-152,-474,1525,2
-3462,-2261,9133,-233,-478,1483,2
-3415,-2349,9286,-270,-467,1407,2
-3452,-2537,9437,-233,-413,1344,2
-3390,-2537,9391,-142,-317,1314,2
-3390,-2630,9391,-142,-317,1314,2
-3594,-2464,9230,-39,-208,1283,2
-3718,-2514,8993,21,-140,1257,2
-3824,-2677,8549,48,-143,1244,2
-3856,-2889,8323,68,-213,1252,2
-3647,-2974,8330,116,-297,1296,2
-3568,-3005,8421,191,-346,1381,2
-3577,-2684,8711,252,-348,1469,2
-3653,-2047,9233,251,-340,1519,2
-3845,-1585,9617,183,-322,1492,2
-3845,-1585,9617,183,-322,1492,2
-3873,-1087,9852,62,-290,1416,2
-4095,-870,9564,-59,-264,1306,2
-4234,-920,9255,-131,-270,1167,2
-4068,251,9507,9,21,-211,2
-4161,434,9415,27,49,-271,2
-4280,625,9299,41,63,-341,2
-4341,1016,9131,46,51,-435,2
-4442,1527,9287,39,17,-569,2
-4524,2395,9671,16,10,-762,2
-5054,3576,10033,1,48,-1072,2
-5096,3839,10115,-27,135,-1499,2
-4947,4054,10179,-34,285,-1951,2
-4947,4054,10179,-34,285,-1951,2
-5328,3808,9772,-89,411,-2452,2
-4846,3093,9154,-144,431,-2955,2
-4072,2193,9066,-199,362,-3318,2
-4016,1628,8573,-185,307,-3563,2
-3733,1312,8249,-125,215,-3753,2
-3213,1056,8968,-35,144,-3904,2
-2912,707,9592,86,221,-3994,2
-2953,732,9829,201,359,-4064,2
-3139,343,9999,221,476,-4175,2
-3139,343,9999,221,476,-4274,2
-1875,-1184,10229,156,658,-4244,2
-1490,-5510,8472,114,576,-3497,2
-1205,-6340,8598,259,529,-3088,2
-1211,-6244,8811,342,496,-2627,2
-1625,-5588,8756,302,417,-2197,2
-1625,-5588,8756,180,291,-1890,2
-1769,-5126,8683,180,291,-1890,2
-1664,-4974,8474,80,182,-1666,2
-1624,-4995,8439,52,100,-1466,2
-1546,-4951,8549,59,61,-1285,2
-1576,-5014,8725,63,42,-1108,2
-1617,-5046,8706,35,24,-934,2
-1649,-5325,8664,16,15,-750,2
-1643,-5487,8623,38,30,-566,2
-1733,-5306,8498,66,44,-382,2
-1733,-5306,8498,75,23,-235,2
-2007,-4963,8309,75,23,-235,2
-1958,-4875,8374,61,-23,-140,2
-1983,-4747,8289,26,-76,-49,2
-2032,-4709,8409,-7,-134,36,2
-2112,-4695,8319,-32,-184,116,2
-2167,-4663,8548,-50,-235,188,2
-2246,-4427,8697,-73,-255,258,2
