aX,aY,aZ,gX,gY,gZ,target
-5535,-491,7312,-214,298,-142,5
-5277,-265,6872,-49,108,-99,5
-4760,-307,7688,106,-121,-62,5
-4890,5,8712,196,-223,-16,5
-5099,98,8695,199,-237,-19,5
-4782,198,8769,196,-93,-55,5
-4461,119,8836,156,-3,-56,5
-4388,125,8896,70,29,-7,5
-4722,21,8700,-19,24,39,5
-4722,21,8700,-74,3,50,5
-4870,1,8525,-74,3,50,5
-4782,52,8679,-93,8,42,5
-4619,106,8712,-113,6,51,5
-4365,-20,9182,-151,-25,93,5
-4317,81,9458,-208,12,152,5
-4308,187,9223,-295,101,226,5
-4817,-3046,-3907,-357,161,262,5
-5967,528,7855,-36,-469,133,5
-5094,685,9379,295,-482,-108,5
-4922,685,8798,12,-582,-168,5
-4922,21,8798,12,-582,-168,5
-4549,-19,9945,-73,-605,-221,5
-4622,-271,9582,28,-343,-237,5
-4267,-427,9322,141,-194,-164,5
-4511,-367,9450,218,-102,-89,5
-4526,-551,9302,235,15,-28,5
-4559,-416,8986,229,68,31,5
-4695,-196,8693,213,32,64,5
-4622,-17,8642,183,-47,70,5
-4795,229,8718,152,-114,47,5
-4795,229,8718,152,-114,47,5
-4922,546,8867,117,-156,0,5
-4794,771,9162,43,-195,-53,5
-4744,574,9282,-56,-221,-92,5
-4679,283,9229,-132,-193,-122,5
-4624,93,9211,-173,-153,-120,5
-4459,-32,9181,-178,-115,-80,5
-4455,-160,9552,-146,-54,-30,5
-4673,-141,9626,-109,56,18,5
-4701,15,9340,-91,161,35,5
-4701,15,9340,-91,161,35,5
-4741,180,9321,-73,233,24,5
-4973,206,8813,-57,276,-7,5
-5011,75,8293,-10,238,-69,5
-4737,94,8137,32,168,-137,5
-5158,16,7887,40,52,-158,5
-5034,-180,8084,67,-117,-186,5
-4697,-250,8644,77,-243,-175,5
-4630,-131,9067,39,-308,-142,5
-4688,-100,9273,28,-235,-113,5
-4688,-100,9273,28,-235,-113,5
-4735,-40,9157,32,-116,-108,5
-4505,-88,9235,36,-1,-106,5
-4456,-279,9002,53,94,-91,5
-4478,-244,8760,69,135,-55,5
-4620,-86,8506,73,120,-31,5
-4730,107,8608,69,73,-21,5
-4871,263,8638,45,25,-48,5
-4847,242,8845,15,-7,-84,5
-4716,96,8941,-13,-3,-109,5
-4716,96,8941,-32,6,-105,5
-4607,-173,8868,-32,6,-105,5
-4454,-447,8896,-31,6,-67,5
-4425,-540,8877,7,9,-2,5
-4487,-497,8830,49,40,54,5
-4583,-370,8803,69,75,83,5
-4655,-191,8684,62,83,98,5
-4804,44,8553,48,47,95,5
-4704,139,8618,28,-1,81,5
-4855,203,8612,26,-14,53,5
-4855,203,8612,26,-14,53,5
-4907,212,8531,43,4,7,5
-4797,142,8544,75,18,-26,5
-4705,57,8705,100,14,-44,5
-4815,-26,8736,107,-2,-42,5
-4878,1,9134,87,-1,-38,5
-4907,-175,9073,48,54,-33,5
-4760,-203,8734,23,100,-25,5
-4711,-254,8630,42,109,-16,5
-4794,-61,8574,57,100,12,5
-4794,-61,8574,53,65,32,5
-4765,-62,8365,53,65,32,5
-4949,63,8346,53,15,34,5
-5002,83,8512,69,-26,26,5
-4906,74,8604,83,-43,18,5
-4947,128,8815,101,-19,17,5
-4935,155,8782,108,25,14,5
-4972,136,8672,97,43,10,5
-5028,75,8772,78,48,5,5
-4968,-186,8763,59,54,3,5
-4968,-186,8763,49,53,4,5
-4882,-111,8755,32,49,0,5
-4935,-101,8889,32,49,0,5
-4794,-165,8733,18,25,-5,5
-4784,-165,8824,28,-2,3,5
-4761,-174,8834,56,1,16,5
-4737,-124,8848,86,18,30,5
-4730,-21,8829,100,31,37,5
-4736,113,8839,93,43,37,5
-4770,144,8845,72,34,35,5
-4875,320,8723,40,-5,18,5
-4875,320,8723,40,-5,18,5
-4827,325,8717,0,-54,-6,5
-4717,240,8882,-25,-78,-23,5
-4521,-31,9011,-148,20,-10,5
-4851,151,8953,-166,53,12,5
-4957,195,8932,-149,102,-9,5
-4657,86,8752,-114,123,-22,5
-4660,37,8705,-62,137,-14,5
-4882,-71,8532,-20,140,12,5
-4887,-21,8606,-8,114,30,5
-4914,31,8695,-29,100,32,5
-4914,31,8695,-29,95,34,5
-4902,45,8585,-57,95,34,5
-4904,291,8561,-69,87,18,5
-4899,241,8383,-75,77,-15,5
-4822,174,8166,-64,62,-37,5
-5057,132,8152,-32,34,-50,5
-4978,8,8216,-7,-21,-57,5
-4831,-5,8475,-3,-69,-50,5
-4724,-132,8656,-31,-78,-23,5
-4655,-287,8664,-73,-72,7,5
-4655,-287,8664,-111,-49,64,5
-4508,-279,8815,-111,-49,64,5
-4661,-250,8660,-145,-15,119,5
-4834,-337,8505,-134,7,158,5
-4704,-110,8566,-127,7,182,5
-4900,-20,8696,-119,16,181,5
-4922,193,8775,-122,26,172,5
-4880,327,8955,-127,45,149,5
-4852,216,9017,-141,93,127,5
-4742,-150,9107,-130,164,128,5
-4742,-150,9107,-166,251,169,5
-4311,-228,9154,-166,251,169,5
-4328,-287,8958,-255,307,276,5
-4707,-390,8555,-342,310,400,5
-7180,-2908,-4228,-120,619,494,5
-6498,-842,8404,89,-335,346,5
-5229,1250,9872,330,-552,157,5
-4694,658,9379,45,-569,78,5
-5083,397,9994,-73,-494,-32,5
-4995,105,9422,29,-260,-96,5
-4701,108,8930,149,-152,-74,5
-4701,108,8930,149,-152,-74,5
-4486,260,9212,144,-149,-45,5
-4813,-320,9449,97,-114,-12,5
-4762,-324,9836,56,-42,18,5
-4762,-161,9857,-9,30,52,5
-4764,-21,9476,-66,66,89,5
-4996,10,9092,-59,95,93,5
-5016,104,9004,-28,117,89,5
-5527,952,8798,-36,114,45,5
-5290,1771,9019,-132,80,-124,5
-5290,1771,9019,-132,80,-124,5
-4941,613,8591,-293,64,-284,5
-5313,-147,7848,-296,51,-329,5
-5325,-555,7844,-91,-3,-322,5
-4786,-498,8204,101,-93,-271,5
-4463,-349,8915,137,-126,-183,5
-4636,-461,9153,111,-87,-105,5
-4567,-460,9053,90,-7,-47,5
-4369,-336,9188,57,118,0,5
-4558,-262,9067,4,199,43,5
-4558,-262,9067,4,199,43,5
-4755,-277,8751,-53,234,56,5
-4644,-458,8365,-91,220,73,5
-4577,-440,8207,-86,166,111,5
-4382,-398,8734,-67,117,167,5
-4437,-173,9373,-37,163,226,5
-4427,297,9634,-91,282,271,5
-4776,491,8982,-244,442,288,5
-8825,-2252,-2441,-65,232,362,5
-5371,-951,9175,471,-372,185,5
-5371,-951,9175,616,-329,148,5
-4710,124,8435,616,-329,148,5
-4882,-479,8650,402,-493,254,5
-5046,543,9647,309,-450,180,5
-5071,610,9415,282,-265,93,5
-5125,771,9223,278,-161,9,5
-4999,582,9328,259,-119,-69,5
-4856,180,9208,220,-60,-102,5
-4803,148,8941,186,-38,-95,5
-4682,56,8823,160,-89,-62,5
-4682,56,8823,160,-89,-62,5
-4484,98,8518,133,-163,-13,5
-4916,183,8695,100,-240,25,5
-4968,425,9207,43,-284,36,5
-5052,547,9640,-48,-246,3,5
-4957,476,9856,-176,-158,-47,5
-4800,273,9600,-288,-80,-79,5
-4889,197,9211,-337,-36,-86,5
-5076,151,8915,-317,-32,-81,5
-5162,217,8897,-248,-43,-98,5
-5162,217,8897,-248,-43,-143,5
-4999,214,9036,-169,-10,-143,5
-4980,-25,9114,-79,78,-156,5
-4563,356,9097,-32,137,-142,5
-5051,-193,8199,-15,161,-131,5
-4845,-283,8203,30,81,-92,5
-4920,-222,8132,102,-7,-61,5
-4832,-59,8712,158,-113,-50,5
-5078,80,9534,173,-135,-66,5
-4894,212,9247,104,-100,-88,5
-4894,212,9247,56,4,-112,5
-4834,179,8940,56,4,-112,5
-4667,88,8801,42,75,-117,5
-4465,-16,8669,20,108,-81,5
-4470,-119,8630,4,91,-28,5
-5162,217,8897,-248,-43,-98,5
-5162,217,8897,-248,-43,-143,5
-4999,214,9036,-169,-10,-143,5
-4980,-25,9114,-79,78,-156,5
-4563,356,9097,-32,137,-142,5
-5051,-193,8199,-15,161,-131,5
-4845,-283,8203,30,81,-92,5
-4920,-222,8132,102,-7,-61,5
-4832,-59,8712,158,-113,-50,5
-5078,80,9534,173,-135,-66,5
-4894,212,9247,104,-100,-88,5
-4894,212,9247,56,4,-112,5
-4834,179,8940,56,4,-112,5
-4667,88,8801,42,75,-117,5
-4465,-16,8669,20,108,-81,5
-4470,-119,8630,4,91,-28,5
-4567,-45,8519,-3,61,17,5
-4719,70,8402,-2,31,41,5
-4804,111,8407,-5,1,46,5
-4795,193,8662,-14,-23,37,5
-4738,110,8818,-28,-9,38,5
-4738,110,8818,-23,40,45,5
-4802,-141,8852,-23,40,45,5
-4688,-235,8819,15,83,57,5
-4733,-220,8561,60,107,72,5
-4826,-107,8433,108,98,67,5
-4977,161,8478,120,61,29,5
-4791,217,8511,114,18,3,5
-5066,105,8507,127,0,-37,5
-4778,64,8626,139,-6,-45,5
-4808,105,8800,147,10,-50,5
-4808,105,8891,132,45,-28,5
-4881,88,8891,132,45,-28,5
-4960,33,8776,97,81,-31,5
-4969,-63,8688,98,115,-21,5
-4935,52,8727,108,132,-17,5
-5099,161,8593,126,122,-27,5
-4918,386,8622,112,70,-50,5
-5082,238,8604,91,27,-90,5
-4771,239,8782,70,-23,-84,5
-4734,116,8864,60,-51,-56,5
-4912,173,8799,65,-50,-17,5
-4912,173,8799,65,-50,-17,5
-4978,203,8707,54,-36,-1,5
-4948,203,8647,31,-18,2,5
-4959,78,8517,19,-12,14,5
-4993,19,8569,25,-18,29,5
-5029,-56,8695,36,-14,41,5
-4998,35,8867,48,5,47,5
-4999,126,8706,31,24,49,5
-4978,22,8666,37,32,40,5
-5009,189,8626,51,28,52,5
-5009,189,8626,51,28,52,5
-4999,258,8556,68,20,47,5
-4932,334,8568,63,-4,48,5
-5063,388,8541,40,-45,49,5
-5182,362,8630,9,-75,32,5
-5166,358,8744,-21,-89,7,5
-4983,233,8809,-44,-65,-9,5
-4955,162,8805,-50,-30,-6,5
-4973,163,8684,-48,-16,10,5
-5015,92,8640,-24,-13,25,5
-5015,92,8640,-24,-13,25,5
-5029,174,8681,7,-4,28,5
-5012,254,8645,20,1,23,5
-5070,357,8554,21,-28,6,5
-5075,342,8590,20,-75,-20,5
-4969,259,8775,9,-98,-45,5
-4998,145,8888,-11,-81,-53,5
-4957,-43,8902,-29,-50,-50,5
-4753,-88,8852,-45,-29,-25,5
-4796,33,8840,-62,-17,19,5
-4796,33,8840,-62,-17,19,5
-4975,-35,8656,-69,-9,48,5
-4931,-7,8700,-46,5,66,5
-5041,98,8705,-5,28,65,5
-4995,277,8494,21,21,59,5
-5156,373,8475,32,-18,34,5
-5100,343,8648,32,-57,0,5
-4953,227,8761,19,-68,-19,5
-4938,154,8863,7,-45,-23,5
-4996,137,8845,1,-14,-21,5
-4996,137,8845,1,-14,-21,5
-4943,88,8810,-10,-5,-18,5
-4805,105,8857,-29,-8,-12,5
-4847,-33,8776,-47,-12,5,5
-4796,-168,8724,-39,-18,28,5
-4776,-118,8841,-23,-14,56,5
-4835,-3,8839,-18,-3,80,5
-4863,63,8688,-29,5,94,5
-4930,117,8541,-28,4,92,5
-4986,281,8516,-4,1,75,5
-4986,281,8516,-4,-21,48,5
-5052,458,8517,7,-21,48,5
-5012,513,8581,-7,-52,12,5
-4945,346,8519,-17,-69,-8,5
-4880,251,8608,-6,-73,-16,5
-4871,221,8806,1,-53,-14,5
-4831,186,8853,-10,-32,-3,5
-4792,112,8781,-32,-19,8,5
-4772,22,8636,-37,-6,21,5
-4840,7,8567,-17,-7,39,5
-4881,58,8715,-4,-64,48,5
-4881,58,8715,-4,-64,48,5
-4917,-74,8260,-105,18,12,5
-5175,-363,8086,-70,-9,6,5
-4855,-277,8435,-50,-15,14,5
-4768,-333,8537,-49,-2,47,5
-4809,-339,8672,-54,21,95,5
-4564,-321,8651,-77,45,173,5
-4865,-144,8622,-98,80,207,5
-4865,-144,8622,-98,80,207,5
-4823,117,8723,-127,108,222,5
-4832,508,8935,-169,131,202,5
-4906,644,9053,-251,145,177,5
-5125,415,9099,-335,161,146,5
-5247,-23,8906,-399,199,117,5
-5245,-342,8840,-421,244,116,5
-4372,-3480,-3678,-369,208,142,5
-5416,-635,8224,-110,-331,169,5
-5280,-214,9243,301,-419,176,5
-5280,-214,9243,301,-419,176,5
-4889,8,8647,128,-444,192,5
-4926,-163,9069,-32,-516,167,5
-5219,-492,8945,43,-406,135,5
-4833,-229,9014,164,-271,153,5
-4832,-74,9297,203,-233,174,5
-4947,-23,9297,169,-196,183,5
-4898,130,9498,134,-134,161,5
-5064,269,9663,100,-50,137,5
-5344,324,9288,88,30,73,5
-5344,324,9288,88,30,73,5
-5267,655,9367,73,72,-8,5
-5187,1001,10090,6,120,-109,5
-5161,844,10348,-147,224,-200,5
-4784,351,9556,-334,322,-256,5
-4937,-56,8400,-409,376,-248,5
-4979,-25,7374,-383,367,-207,5
-5338,-866,6630,-236,181,-137,5
-5149,-795,7529,14,-40,-83,5
-4950,-527,8449,142,-126,-35,5
-4950,-527,8449,142,-149,0,5
-4932,-234,8785,114,-149,0,5
-4983,-133,8549,30,-152,6,5
-5003,-195,8331,35,-40,3,5
-4974,-155,8328,81,35,3,5
-5002,-28,8336,108,66,-9,5
-4867,9,8342,102,48,-27,5
-4840,-31,8355,45,-21,-26,5
-4989,-189,8228,3,-90,-13,5
-4819,-440,8422,4,-131,6,5
-4819,-440,8422,20,-91,61,5
-4554,-484,9048,20,-91,61,5
-4275,-573,9988,16,50,141,5
-3674,434,10715,-86,310,254,5
-9771,43,-11673,-599,261,362,5
-6223,-1319,6863,-296,-525,109,5
-4768,-1197,8477,371,-644,-106,5
-4070,-1792,9110,623,-478,36,5
-4756,-622,9720,707,-328,193,5
-5142,-26,9676,645,-216,199,5
-5142,-26,9676,516,-187,178,5
-4853,86,9445,516,-187,178,5
-4914,279,9276,340,-222,178,5
-4979,305,9231,194,-243,182,5
-5099,305,9213,127,-220,162,5
-5125,669,9261,94,-203,128,5
-4967,824,9316,37,-215,73,5
-4681,588,9269,-7,-192,18,5
-4668,270,9093,-20,-133,7,5
-4770,288,9032,5,-81,23,5
-4674,390,9059,-10,-67,51,5
-4674,390,9059,-10,-67,51,5
-4673,454,9101,-199,-110,66,5
-4673,454,9101,-199,-110,66,5
-4855,396,8970,-275,-116,55,5
-4998,332,8845,-292,-112,28,5
-5020,165,8569,-257,-111,-12,5
-5099,317,8498,-190,-116,-63,5
-4819,321,8890,-142,-118,-106,5
-5335,343,8829,-126,-100,-158,5
-5211,399,8849,-129,-80,-237,5
-5211,399,8849,-129,-80,-237,5
-4792,256,8807,-131,-61,-302,5
-4293,177,8925,-85,-3,-334,5
-4869,174,9038,-61,72,-324,5
-5197,-248,8365,-31,43,-318,5
-5016,-703,8246,91,-50,-332,5
-4668,-547,8624,272,-91,-340,5
-4537,-270,8775,364,-109,-330,5
-4503,55,8912,314,-158,-301,5
-4652,-253,9011,232,-243,-268,5
-4652,-253,9011,232,-243,-268,5
-4151,-329,9399,150,-284,-196,5
-4095,-378,9071,108,-165,-106,5
-4380,-107,8900,111,-45,-39,5
-4713,250,8721,112,0,-20,5
-4857,291,8902,108,-31,-44,5
-4572,232,9105,89,-65,-83,5
-4467,-7,9163,52,-46,-102,5
-4539,-195,8992,39,7,-97,5
-4454,-163,8853,-27,-12,1,5
-4454,-163,8853,-27,-12,1,5
-4584,-251,8787,-28,-17,26,5
-4683,-409,8658,21,11,30,5
-4581,-206,8646,58,24,42,5
-4649,-71,8701,83,7,55,5
-4621,-98,8684,93,-23,77,5
-4362,-887,8878,92,-436,607,5
-4460,-305,9446,1,-488,671,5
-5146,357,9493,30,-383,614,5
-5249,577,8980,83,-219,478,5
-6829,131,7623,197,-248,323,5
-5216,2036,9002,252,-389,102,5
-4855,1350,9284,142,-439,-97,5
-4855,1350,9284,142,-439,-97,5
-5230,790,9641,58,-482,-190,5
-4746,393,10127,14,-395,-226,5
-4828,177,9809,-20,-230,-208,5
-4895,397,9537,-34,-98,-188,5
-5099,665,9456,-37,-4,-205,5
-4951,891,9546,-97,53,-274,5
-3738,544,10261,-250,138,-315,5
-3878,-549,9585,-420,265,-240,5
-4662,-1043,8289,-400,288,-107,5
-4662,-1043,8289,-400,288,-25,5
-4978,-976,8072,-208,213,-25,5
-4435,-708,8717,-50,112,47,5
-4249,-340,9113,-15,81,115,5
-4518,-19,9059,-48,112,147,5
-4794,86,8792,-48,145,142,5
-4816,74,8467,-17,164,111,5
-4840,-14,8335,23,211,83,5
-4809,-92,8283,62,251,67,5
-4710,-19,8359,62,247,64,5
-4710,-19,8359,27,206,87,5
-4569,-260,8721,27,206,87,5
-4217,-360,9406,10,222,134,5
-3399,234,10880,-15,370,229,5
-3440,1621,11464,-148,750,315,5
-3870,2599,10405,-555,1061,339,5
-9413,1150,3002,-673,18,321,5
-6894,-1477,8219,-98,-638,-69,5
-4832,-1204,8146,255,-555,-266,5
-4613,-1343,8740,267,-635,-73,5
-4613,-1343,8740,217,-576,3,5
-5067,-141,9415,217,-576,3,5
-5228,-107,8941,262,-394,-44,5
-4773,-240,8792,289,-290,-91,5
-4668,-721,8804,315,-274,-52,5
-4585,-973,8993,339,-218,10,5
-4433,-952,9268,333,-150,93,5
-4286,-721,9421,295,-92,168,5
-4557,-223,9239,243,-95,236,5
-4728,205,9178,217,-139,251,5
-4728,205,9351,206,-150,214,5
-4896,588,9351,206,-150,214,5
-5121,1027,9474,153,-133,134,5
-5100,1229,9460,39,-124,18,5
-5041,936,9300,-82,-116,-99,5
-4610,404,9201,-182,-124,-151,5
-4542,89,9762,-213,-78,-133,5
-4942,88,9791,-199,32,-86,5
-5184,252,9473,-215,139,-68,5
-5507,1344,9141,-236,206,-135,5
-5093,489,7600,-284,210,-254,5
-5093,489,7600,-284,210,-254,5
-4817,-454,7312,-138,109,-321,5
-4710,-748,7429,188,-1,-307,5
-4822,-507,7919,474,-93,-260,5
-4798,20,8796,591,-199,-228,5
-4557,303,9942,449,-263,-202,5
-4360,256,9487,243,-175,-171,5
-4411,174,9339,91,-77,-131,5
-4521,-126,8967,-37,102,-40,5
-4703,-160,8761,-15,136,-23,5
-4703,-160,8761,-15,136,-23,5
-4916,-27,8378,35,128,-32,5
-4926,148,8208,91,80,-68,5
-4855,133,8352,126,31,-93,5
-4719,13,8543,140,-3,-102,5
-4674,-72,8711,165,-5,-89,5
-4593,-86,8879,194,34,-71,5
-4593,-86,8879,194,34,-71,5
-4695,-7,8829,204,81,-59,5
-4747,44,8894,191,108,-53,5
-4728,-44,8884,161,106,-45,5
-4660,-81,8827,133,100,-30,5
-4657,-98,8772,115,116,-4,5
-4675,-46,8663,114,136,26,5
-4748,-66,8526,136,141,54,5
-4883,25,8547,168,147,65,5
-4863,94,8383,202,147,57,5
-4863,94,8383,202,147,57,5
-4989,205,8403,266,142,37,5
-5042,405,8481,326,148,7,5
-4954,412,8416,369,134,-23,5
-4798,484,8568,371,84,-19,5
-4810,419,8758,343,31,10,5
-4729,367,8880,282,-1,54,5
-4780,314,8924,217,-1,94,5
-4892,378,8867,151,19,114,5
-4967,474,8749,71,31,124,5
-4967,474,8749,71,31,124,5
-5038,465,8571,5,13,112,5
-4939,361,8378,-24,-32,108,5
-4949,282,8569,-7,-76,114,5
-4875,306,8614,33,-86,119,5
-5179,488,8644,80,-75,111,5
-5003,704,8675,96,-83,78,5
-5020,746,8751,89,-104,45,5
-4884,527,8842,73,-111,21,5
-4687,-321,9024,-71,21,-2,5
-4687,-321,9024,-71,21,-2,5
-4688,-287,9262,-117,18,36,5
-4852,-287,9078,-178,20,72,5
-5015,-355,8785,-215,29,64,5
-5113,-356,8775,-200,63,36,5
-4975,-327,8837,-158,109,10,5
-4895,-250,8980,-133,154,-4,5
-4852,-204,9255,-141,204,-1,5
-4573,-128,9211,-224,270,15,5
-4521,-287,8980,-340,334,58,5
-4521,-287,8980,-340,334,58,5
-4486,-683,8078,-420,361,135,5
-4687,-736,7642,-378,302,248,5
-5054,-570,7673,-254,207,328,5
-5083,-3023,-3114,-38,-25,358,5
-5751,-87,8679,245,-350,274,5
-4837,196,9573,395,-339,193,5
-5152,-130,9044,178,-368,160,5
-5169,-463,9043,-14,-392,122,5
-4972,-563,9090,-20,-311,102,5
-4972,-563,9090,-20,-311,102,5
-4798,-782,8699,0,-262,137,5
-4821,-662,8930,9,-270,178,5
-4981,-558,8910,31,-263,189,5
-5112,-282,9104,51,-249,151,5
-5191,187,9859,46,-211,64,5
-5392,189,9777,-2,-89,-55,5
-5158,-183,9224,-45,6,-157,5
-5188,28,9081,-62,44,-215,5
-5365,94,9008,-141,60,-273,5
-5365,94,9008,-285,18,-318,5
-4851,89,8946,-285,18,-318,5
-5072,-903,8438,-375,-26,-342,5
-5004,-1337,8389,-273,-61,-324,5
-4607,-1317,8396,-43,-36,-260,5
-4445,-1028,8286,160,0,-154,5
-4579,-652,8455,259,11,-57,5
-4655,-597,8650,274,6,13,5
-4768,-509,8782,260,6,48,5
-4734,-266,8963,189,25,58,5
-4734,-266,8963,189,25,58,5
-4727,-210,8827,86,64,48,5
-4746,-113,8573,0,69,29,5
-4800,-227,8458,-63,24,23,5
-4949,-514,8400,-91,-22,14,5
-4796,-658,8382,-78,-43,15,5
-4773,-593,8639,-52,-44,22,5
-4514,-447,9388,-53,-27,50,5
-4113,5,10670,-115,26,81,5
-3744,506,10348,-292,245,142,5
-3744,506,10348,-292,245,142,5
-8964,-2459,-9553,-58,251,247,5
-6648,-880,7714,312,-313,43,5
-4852,-155,8701,673,-357,-163,5
-4517,-1221,8372,481,-474,-72,5
-4762,-501,9643,351,-510,-38,5
-4950,-461,9303,328,-326,-43,5
-4638,-453,9037,326,-233,-31,5
-4583,-533,8977,333,-201,1,5
-4630,-772,9095,335,-142,31,5
-4630,-772,9095,298,-110,72,5
-4563,-741,9199,298,-110,72,5
-4492,-515,9223,219,-150,100,5
-4290,-403,9370,122,-202,142,5
-4593,-173,9312,58,-230,180,5
-4652,58,9383,17,-210,171,5
-4761,-71,9367,-15,-157,138,5
-4461,-226,9385,-65,-109,124,5
-4570,-339,9311,-104,-66,143,5
-4710,-138,9221,-134,-37,155,5
-4880,56,9035,-161,-36,135,5
-4880,56,9035,-161,-36,135,5
-5011,305,8896,-177,-55,68,5
-4792,232,9113,-191,-70,-3,5
-4773,-19,9030,-189,-54,-43,5
-4804,-214,8888,-156,-22,-54,5
-4847,-144,8981,-112,1,-62,5
-4823,-232,8932,-83,31,-77,5
-4351,2,9089,-68,54,-86,5
-4283,-253,9349,-116,114,-87,5
-4283,-253,9349,-141,144,-69,5
-5002,-550,8882,-141,144,-69,5
-4974,-514,8456,-89,98,-76,5
-4679,-695,8452,9,41,-86,5
-4467,-719,8507,105,-7,-67,5
-4450,-478,8517,173,-46,-31,5
-4607,-334,8566,202,-72,-5,5
-4662,-178,8700,212,-86,-19,5
-4752,-154,8744,156,49,-49,5
-4752,-154,8744,156,49,-49,5
-4694,-98,8725,133,-8,-63,5
-4546,-245,9006,85,-75,-80,5
-4425,-451,8991,65,-76,-59,5
-4322,-423,8957,54,-36,-27,5
-4518,-494,8818,67,9,12,5
-4584,-324,8714,88,23,30,5
-4370,-281,8681,90,-14,54,5
-4370,-281,8681,70,-61,89,5
-4491,-302,8616,70,-61,89,5
-4572,-393,8551,61,-80,114,5
-4596,-332,8571,83,-81,128,5
-4624,-214,8654,105,-67,139,5
-4863,88,8806,109,-64,132,5
-4595,-130,8974,-104,18,-72,5
-4588,-200,9050,-91,45,-59,5
-4492,-233,9013,-76,85,-42,5
-4546,-174,9002,-65,133,-34,5
-4621,-45,8890,-58,162,-35,5
-4608,100,8918,-59,159,-47,5
-4613,173,8916,-93,130,-77,5
-4613,173,8916,-93,130,-77,5
-4604,295,9087,-152,97,-101,5
-4448,197,9134,-249,66,-112,5
-4651,-90,8757,-317,45,-80,5
-4728,-303,8644,-300,51,-56,5
-4737,-455,8569,-227,88,-32,5
-4442,-445,8389,-156,127,15,5
-4816,-372,8140,-104,137,37,5
-4735,-387,7990,-68,81,51,5
-4636,-290,8243,-59,7,64,5
-4636,-290,8243,-59,7,64,5
-4773,-326,8506,-58,-34,59,5
-4468,-183,8737,-107,-58,73,5
-4683,-350,8711,-161,-47,84,5
-4716,-246,8866,-182,-25,95,5
-4638,-155,8781,-174,5,96,5
-4669,-56,8811,-169,28,92,5
-4695,-35,8894,-180,46,86,5
-4727,-92,8919,-194,71,79,5
-4591,-63,9188,-208,119,76,5
-4591,-63,9188,-208,119,76,5
-4569,-142,9603,-243,218,81,5
-4453,-90,9550,-312,354,106,5
-4560,-122,8992,-412,448,149,5
-4834,-539,8416,-461,455,199,5
-4966,-927,7831,-428,419,237,5
-4999,-1373,2254,-354,351,268,5
-5105,-470,11123,130,-466,215,5
-5418,-1744,8560,493,-568,169,5
-4110,123,9580,360,-524,135,5
-4110,123,9580,360,-524,135,5
-4620,-276,9407,175,-544,171,5
-4926,-163,9522,153,-415,152,5
-4831,-300,9407,175,-227,131,5
-4664,-354,9481,168,-188,141,5
-4543,-543,9363,75,-175,183,5
-4865,-266,9359,10,-169,207,5
-5083,68,9201,-26,-208,202,5
-5243,629,9629,-61,-217,116,5
-5422,798,9951,-127,-122,-16,5
-5422,798,9951,-127,-122,-16,5
-5290,332,9528,-201,9,-159,5
-4957,-179,9060,-219,99,-224,5
-4973,-37,8804,-175,149,-247,5
-3894,-141,8987,-211,163,-219,5
-4504,-527,9169,-280,130,-148,5
-5245,-744,8719,-288,124,-111,5
-5125,-866,8543,-230,102,-119,5
-4498,-813,8645,-149,81,-113,5
-4235,-842,8434,-75,109,-49,5
-4235,-842,8434,-75,100,27,5
-4599,-701,8066,42,100,27,5
-5066,-600,8074,166,48,53,5
-5096,-418,8379,245,3,25,5
-4744,-361,8620,285,13,-7,5
-4721,-95,8760,288,56,-37,5
-4350,-96,8872,200,75,-10,5
-4725,-227,8636,59,80,32,5
-4851,-514,8336,-42,65,48,5
-4616,-594,8433,-80,37,68,5
-4616,-594,8433,-62,50,97,5
-4390,-636,9239,-62,50,97,5
-3952,-430,10118,-72,149,160,5
-3912,484,10791,-174,277,226,5
-4535,614,9610,-329,598,260,5
-8837,-989,3894,-2,-254,270,5
-4869,-384,8988,687,-333,-57,5
-4962,-273,9001,353,-155,4,5
-4962,-273,9001,353,-155,4,5
-4578,-345,9024,339,-128,25,5
-4514,-579,9010,295,-131,94,5
-4484,-488,9147,214,-152,155,5
-4599,-311,9287,131,-171,203,5
-4619,-37,9199,80,-178,243,5
-4907,313,9259,75,-161,222,5
-5053,494,9296,77,-122,148,5
-4965,659,9308,37,-96,63,5
-4965,659,9308,37,-96,63,5
-5070,735,9332,-41,-77,-21,5
-4987,553,9202,-144,-71,-102,5
-4753,172,9020,-229,-91,-147,5
-4567,-94,9262,-266,-83,-143,5
-4484,-399,9635,-243,4,-76,5
-4673,-363,9594,-196,135,3,5
-5016,-163,9458,-178,237,45,5
-4798,699,9209,-286,305,9,5
-5182,1,8044,-391,278,-39,5
-5182,1,8044,-391,278,-39,5
-5280,-510,7354,-285,123,-114,5
-5112,-576,7540,-62,-27,-173,5
-4869,-369,8124,123,-159,-193,5
-5245,-290,8551,230,-219,-215,5
-5155,-147,8983,266,-223,-260,5
-4675,-246,9074,241,-193,-291,5
-4243,-391,9135,189,-111,-252,5
-4127,-367,9121,150,-24,-167,5
-4325,-269,9049,107,30,-82,5
-4697,228,9322,-54,50,-9,5
-4727,159,9268,-63,77,-7,5
-4627,195,8930,-68,99,-4,5
-4621,162,8859,-67,81,1,5
-4868,228,8928,-60,55,-16,5
-4884,293,9125,-78,23,-43,5
-4797,256,9223,-128,15,-72,5
-4445,211,9010,-172,25,-71,5
-4445,211,9010,-172,25,-71,5
-4742,98,8650,-151,47,-63,5
-4673,124,8510,-81,51,-50,5
-4807,318,8667,-17,37,-58,5
-4691,151,8798,-25,9,-68,5
-4576,-64,8788,-61,-26,-67,5
-4350,-110,8839,-109,-31,-31,5
-4405,-227,8743,-148,-9,23,5
-4486,-308,8658,-153,17,73,5
-4454,-251,8647,-139,47,116,5
-4454,-251,8647,-139,70,152,5
-4457,-183,8676,-133,70,152,5
-4559,-46,8500,-130,70,172,5
-4760,119,8578,-127,42,168,5
-4667,55,8623,-144,3,149,5
-4523,-144,8672,-169,-10,152,5
-4371,-224,8873,-210,-3,184,5
-4833,648,9585,-461,284,257,5
-4833,648,9585,-461,284,257,5
-5063,552,9427,-565,406,195,5
-5095,579,8845,-635,488,111,5
-3918,-3899,-7915,-608,412,76,5
-4980,-491,9311,26,-266,46,5
-4826,-1202,8693,469,-280,129,5
-4593,-256,8858,439,-307,193,5
-5046,290,9241,299,-385,222,5
-5335,482,9488,280,-274,131,5
-5335,482,9488,237,-146,35,5
-5296,634,9232,237,-146,35,5
-5111,604,9290,155,-160,-43,5
-4871,214,9281,58,-177,-97,5
-4648,-186,9495,7,-150,-106,5
-4435,-345,9826,-25,-86,-70,5
-4712,-149,9610,-40,8,-10,5
-4991,277,9138,-58,47,-7,5
-5018,500,9566,-111,75,-64,5
-4634,500,10168,-225,164,-110,5
-5106,-838,7524,-572,246,-154,5
-4627,-1499,7141,-306,152,-111,5
-4627,-1499,7141,-306,152,-111,5
-4551,-1121,7891,127,64,-19,5
-4861,-283,8830,309,-14,32,5
-4911,123,9208,220,-60,28,5
-4782,154,9080,98,-33,0,5
-4667,0,8863,21,28,-14,5
-4561,-19,8756,-42,100,18,5
-4561,-19,8756,-42,100,18,5
-4673,-122,8611,-114,136,50,5
-4876,-160,8483,-150,131,62,5
-4928,-62,8175,-145,95,47,5
-5014,-39,8226,-107,36,0,5
-4944,-65,8364,-59,-9,-49,5
-4771,-442,8774,-10,-18,-67,5
-4374,-628,9418,10,53,-43,5
-3723,-378,10073,-47,184,63,5
-6278,-3202,-2449,23,740,222,5
-6278,-3202,-2449,23,740,222,5
-5584,-411,8051,248,-63,221,5
-5078,70,8667,640,-257,170,5
-4829,16,8896,480,-297,144,5
-5070,40,9657,277,-376,97,5
-5024,149,9527,243,-239,15,5
-4969,-100,9101,253,-113,-12,5
-4917,76,9079,275,-114,-7,5
-5057,8,8946,268,-109,-18,5
-4963,-37,8812,246,-109,-53,5
-4963,-37,8812,246,-109,-53,5
-4730,-92,8854,215,-138,-67,5
-4539,-80,8770,207,-150,-44,5
-4290,-51,8916,208,-138,3,5
-4612,-175,9034,183,-111,70,5
-4582,70,9321,127,-107,130,5
-4749,381,9525,26,-105,163,5
-4900,654,9491,-110,-114,142,5
-5206,856,9318,-218,-127,56,5
-5113,790,8976,-261,-127,-65,5
-5113,790,8976,-261,-127,-65,5
-4859,454,8974,-246,-118,-150,5
-4621,69,9481,-179,-61,-176,5
-4711,-63,10048,-114,102,-150,5
-5103,-205,9370,-64,284,-142,5
-4393,239,8717,-48,365,-145,5
-5175,-157,7725,-37,393,-127,5
-5059,-131,7316,42,228,-104,5
-4890,-284,7913,148,2,-112,5
-4828,-208,8646,224,-162,-119,5
-4828,-208,8646,224,-162,-119,5
-4717,-133,9093,246,-208,-131,5
-4595,74,9074,187,-193,-134,5
-4890,131,8730,155,-104,-150,5
-4558,315,8812,128,-35,-147,5
-4642,123,8801,79,-1,-122,5
-4723,27,9097,53,17,-109,5
-4844,-138,8943,53,78,-113,5
-4743,-157,8827,89,139,-124,5
-4711,-59,8733,147,195,-131,5
-4644,166,9061,-42,31,-43,5
-4644,166,9061,-42,31,-43,5
-4767,276,9101,-29,47,-21,5
-4744,266,8865,-44,47,-14,5
-4794,224,8822,-37,31,-7,5
-4919,378,8810,-20,17,-18,5
-4907,509,9013,-19,0,-53,5
-4820,508,9123,-61,20,-100,5
-4498,183,9201,-136,33,-114,5
-4738,-53,9054,-175,52,-91,5
-4744,96,8919,-175,53,-71,5
-4744,96,8919,-175,53,-71,5
-4691,265,8775,-193,34,-76,5
-4676,208,8784,-251,8,-69,5
-4719,-2,8618,-248,-16,-48,5
-4917,137,8596,-183,-20,-40,5
-4572,64,8539,-132,-3,-24,5
-4844,258,8976,-130,145,-65,5
-4804,61,8727,-130,145,-65,5
-4804,61,8727,-130,145,-65,5
-4668,22,8555,-142,150,-67,5
-4624,-19,8408,-137,130,-45,5
-4715,-69,8376,-116,84,-9,5
-4746,-105,8516,-102,26,18,5
-4762,-102,8678,-129,-33,56,5
-4862,-126,8575,-130,-40,66,5
-4821,-68,8549,-125,-29,69,5
-4798,-133,8556,-123,-17,76,5
-4798,-133,8556,-124,-3,113,5
-4526,-271,8623,-124,-3,113,5
-4731,-330,8677,-100,28,135,5
-4383,175,9080,-103,48,165,5
-4497,818,9623,-152,115,159,5
-4884,899,9489,-260,191,130,5
-4989,592,9138,-375,244,83,5
-5237,39,8891,-427,317,24,5
-5094,-433,8389,-422,365,4,5
-5047,-632,8148,-376,335,31,5
-5047,-632,8148,-229,180,96,5
-5210,-2358,-2283,-229,180,96,5
-5854,-1222,7539,3,-177,145,5
-4731,-457,9064,310,-259,191,5
-4865,-558,8605,283,-284,232,5
-5075,-514,8821,218,-309,241,5
-4804,-5,9482,263,-207,218,5
-4993,241,9341,242,-120,214,5
-5388,770,9479,164,-131,158,5
-5376,827,9540,55,-113,23,5
-5376,827,9123,-47,-108,-92,5
-5083,628,9123,-104,-136,-172,5
-5241,425,9016,-104,-136,-172,5
-4906,80,9238,-124,-150,-206,5
-4869,-26,9458,-136,-94,-189,5
-5042,86,9142,-177,-16,-168,5
-4561,464,9116,-270,40,-169,5
-4980,-23,8791,-362,50,-177,5
-5109,-614,8114,-359,15,-167,5
-5279,-910,8036,-229,-26,-158,5
-4969,-1093,8299,-40,-81,-136,5
-4969,-1093,8299,-40,-81,-136,5
-4326,-831,8766,69,-107,-67,5
-4583,-537,8790,119,-91,7,5
-4896,-396,8918,146,-59,41,5
-4863,-271,8906,156,25,43,5
-4783,-230,8782,166,150,39,5
-4767,-78,8604,148,223,47,5
-4637,-17,8307,98,188,55,5
-4572,10,8171,30,69,88,5
-4942,21,8220,-29,-42,106,5
-4942,21,8220,-29,-42,106,5
-4896,10,8514,-54,-86,89,5
-4766,-41,9152,-51,-50,64,5
-4176,-199,10643,-54,83,74,5
-3976,399,10433,-182,321,125,5
-4594,675,9661,-404,580,189,5
-8511,-52,1861,-364,12,202,5
-7119,-3586,6916,87,-302,28,5
-4319,-99,9481,567,-223,-61,5
-4236,-1045,8476,498,-240,117,5
-4236,-1045,8476,498,-240,117,5
-5324,-306,8952,433,-246,169,5
-5462,3,8927,422,-127,94,5
-5123,-173,8604,434,-84,33,5
-5070,20,8673,393,-120,12,5
-4974,-90,8678,323,-168,17,5
-5010,37,8653,255,-212,20,5
-4834,222,8683,186,-306,26,5
-4657,329,8815,125,-399,26,5
-4609,163,8859,76,-423,31,5
-4711,94,8889,74,-406,45,5
-4711,94,8889,74,-406,45,5
-4770,204,9170,78,-373,44,5
-4734,417,9902,39,-334,55,5
-5130,916,10527,-72,-225,22,5
-5178,988,10342,-247,-95,-86,5
-4893,616,9871,-413,-9,-186,5
-4984,273,9139,-453,84,-248,5
-4843,10,8504,-384,135,-263,5
-4267,-189,8182,-232,115,-227,5
-4267,-189,8182,-232,115,-227,5
-4984,-421,8098,-72,86,-168,5
-5223,-482,8082,52,11,-136,5
-5304,-447,8076,200,-62,-173,5
-4651,-130,8518,299,-114,-182,5
-4540,-22,8889,-125,30,-37,5
-4540,-22,8889,-130,70,-2,5
-4561,64,8785,-130,70,-2,5
-4889,131,8528,-120,80,-6,5
-4870,185,8535,-102,41,-36,5
-4426,252,8772,-122,-1,-46,5
-4637,-49,8571,-145,-8,-36,5
-4588,-183,8385,-141,-8,-5,5
-4571,-284,8500,-106,-1,23,5
-4503,-98,8760,-91,12,54,5
-4504,-139,8699,-106,18,93,5
-4504,-139,8653,-132,18,110,5
-4761,-64,8653,-132,18,110,5
-4602,63,8646,-137,21,102,5
-4553,290,8970,-132,50,75,5
-4723,441,8932,-144,99,51,5
-4742,374,8806,-167,134,9,5
-4794,159,8695,-195,155,-25,5
-4737,-105,8702,-221,158,-18,5
-4755,-337,8572,-224,160,9,5
-4814,-443,8567,-210,153,48,5
-4869,-727,8895,-180,167,84,5
-4869,-727,8895,-180,167,84,5
-4454,-930,9700,-164,241,138,5
-3784,-204,9933,-218,390,232,5
-3602,107,801,-370,511,315,5
-6001,-349,8029,-336,21,351,5
-5472,59,9194,182,-214,282,5
-5201,15,8474,241,-229,167,5
-5020,273,9312,150,-361,112,5
-5657,1044,9974,75,-288,-6,5
-5696,833,9255,-26,-191,-161,5
-5696,833,9255,-26,-191,-161,5
-5237,344,9152,-104,-210,-283,5
-5108,-259,9022,-145,-200,-296,5
-4974,-579,8883,-113,-149,-251,5
-4695,-675,9385,-56,-109,-176,5
-4778,-659,9469,-15,-14,-103,5
-4777,-479,9337,25,109,-74,5
-4723,-443,8909,35,164,-52,5
-4926,-205,8592,51,162,-42,5
-4260,430,8938,-21,114,-40,5
-4260,430,8938,-21,114,-40,5
-5112,-94,8790,-163,62,-50,5
-5127,-45,8848,-242,44,-100,5
-5167,-482,8199,-239,64,-140,5
-4956,-659,8027,-161,11,-138,5
-4587,-661,8043,-64,-64,-98,5
-4813,-725,8195,28,-124,-18,5
-4877,-506,8591,108,-146,12,5
-4913,-251,8871,131,-117,9,5
-4876,-128,8897,135,-39,-22,5
-4876,-128,8897,135,-39,-22,5
-4808,-83,8745,124,29,-51,5
-4607,-229,8676,80,53,-55,5
-4348,-349,8717,13,20,-7,5
-4604,-483,8535,-31,-20,56,5
-4874,-535,8825,-26,-43,87,5
-4606,-204,9742,-22,9,92,5
-3957,156,10027,-140,117,125,5
-4529,180,9128,-306,243,171,5
-8591,-530,2196,-99,-348,229,5
-8591,-530,2196,-99,-348,229,5
-5222,-1489,7805,375,-538,87,5
-5111,8,9220,593,-343,22,5
-4901,-308,8517,427,-502,97,5
-5152,301,9588,337,-511,11,5
-4980,356,9474,288,-342,-78,5
-5051,417,9288,260,-287,-132,5
-4701,47,9299,217,-246,-193,5
-4413,-489,9298,196,-161,-194,5
-4080,-713,9227,186,-62,-126,5
-4080,-713,9227,186,-62,-12,5
-4071,-765,9503,168,-12,-12,5
-4228,-524,9348,124,-9,106,5
-4261,-307,9382,85,-20,191,5
-4800,235,9367,32,-15,220,5
-5067,792,9412,-94,-32,164,5
-5863,168,8531,-215,-103,53,5
-4528,271,9032,-271,-131,-56,5
-4450,-113,9585,-303,-78,-83,5
-4655,-120,9759,-294,11,-58,5
-4655,-120,9759,-285,119,-48,5
-4724,-151,9626,-285,119,-48,5
-4875,-179,9324,-290,195,-25,5
-4610,106,8353,-340,251,-21,5
-4899,-463,7623,-293,194,-9,5
-4658,-579,7610,-100,65,13,5
-4959,-287,8057,88,-41,42,5
-5118,-147,8591,181,-126,17,5
-5139,-195,8675,177,-150,-21,5
-5276,-411,8577,233,-102,-94,5
-5276,-411,8577,340,-54,-160,5
-4730,-366,8601,340,-54,-160,5
-4467,-183,9023,370,-7,-174,5
-4436,-64,8956,309,28,-142,5
-4557,-34,8885,258,21,-116,5
-4589,1,8947,205,-6,-119,5
-4587,22,8748,155,-34,-109,5
-4709,69,8669,129,-80,-113,5
-4687,-81,8806,122,-92,-125,5
-4564,-270,8855,131,-56,-125,5
-4564,-270,8971,134,10,-102,5
-4492,-271,8971,134,10,-102,5
-4955,454,8738,-172,-32,-28,5
-4955,454,8738,-197,-25,-76,5
-4797,303,8864,-197,-25,-76,5
-4816,82,8810,-214,-2,-109,5
-4064,71,8876,-248,-3,-80,5
-4747,-222,8781,-251,3,-33,5
-4579,-153,8841,-243,0,10,5
-4756,-375,8542,-218,31,23,5
-4746,-500,8431,-160,64,28,5
-4646,-524,8309,-71,84,42,5
-4650,-412,8277,17,75,64,5
-4543,-233,8545,53,37,95,5
-4543,-233,8545,53,37,95,5
-4613,-150,8690,25,0,108,5
-4776,-163,8708,-25,-7,117,5
-4768,-8,8793,-77,-22,101,5
-4506,-193,8800,-145,-43,127,5
-4713,-307,8707,-186,-33,142,5
-4699,-366,8663,-178,-33,166,5
-4707,-198,8717,-154,-25,169,5
-4843,-162,8693,-142,-19,164,5
-4817,-93,8727,-124,-17,144,5
-4817,-93,8727,-124,-17,144,5
-4754,-23,8793,-110,7,116,5
-4454,90,9005,-120,34,121,5
-4656,-43,9227,-135,88,129,5
-4494,-215,9627,-156,179,171,5
-4547,-265,9792,-205,331,230,5
-4436,-302,1968,-335,629,334,5
-4407,-87,9324,-157,-277,252,5
-4846,-805,8158,434,-437,210,5
-4846,-805,8158,434,-437,210,5
-4232,301,9418,381,-338,177,5
-5106,-38,9335,211,-466,192,5
-5486,973,9860,232,-346,59,5
-5093,1027,9541,213,-131,-92,5
-4955,587,9256,153,-135,-173,5
-4761,147,9146,39,-202,-190,5
-4540,-204,9589,-24,-184,-165,5
-4545,-378,9483,-41,-91,-122,5
-4625,-303,9389,-43,-31,-63,5
-4625,-303,9389,-43,-31,-63,5
-4478,-123,9348,-42,33,-31,5
-4869,223,9570,-61,82,-29,5
-4894,413,10319,-129,135,-69,5
-5088,181,9946,-297,236,-134,5
-4585,620,9377,-602,305,-180,5
-5100,-733,7526,-768,287,-205,5
-4743,-1771,6912,-525,128,-139,5
-4407,-1280,7694,-48,15,-54,5
-4736,-628,8295,224,-39,39,5
-4736,-628,8295,224,-39,39,5
-5083,-197,8701,238,-95,47,5
-5054,-50,8675,182,-78,-2,5
-4803,-333,8395,166,-3,-37,5
-4578,-248,8415,195,58,-30,5
-4358,-159,8706,160,63,4,5
-4347,-66,8854,61,32,52,5
-4704,17,8775,-32,-7,64,5
-4844,-74,8882,-65,-12,39,5
-4644,-306,9343,-20,56,6,5
-4644,-306,9343,-20,56,30,5
-3950,390,9737,-32,194,30,5
-4369,406,9157,-229,337,103,5
-4645,-2315,-1362,-375,339,145,5
-5130,-605,8798,158,-371,79,5
-4298,-1351,8962,563,-282,77,5
-4863,-774,8725,481,-302,164,5
-4843,-226,9343,394,-426,197,5
-5117,-44,9501,380,-288,124,5
-4700,154,9317,351,-166,88,5
-4700,154,9317,331,-150,49,5
-4914,251,9354,331,-150,49,5
-4694,224,9367,239,-131,16,5
-4560,4,9379,144,-104,10,5
-4627,-68,9220,80,-90,33,5
-4631,11,8988,48,-96,62,5
-4705,282,9311,31,-98,73,5
-4910,396,9166,-5,-81,62,5
-4920,337,8976,-36,-74,25,5
-4931,246,9028,-65,-56,-10,5
-4931,246,9028,-92,-51,-25,5
-4767,-2,8924,-92,-51,-25,5
-4863,-47,8754,-87,-63,-15,5
-4878,165,8695,-64,-89,-20,5
-4609,93,9129,-44,-122,-33,5
-4792,31,9635,-51,-74,-42,5
-4984,680,9871,-127,18,-75,5
-4929,580,9342,-265,84,-144,5
-4646,-294,8513,-382,97,-205,5
-4588,-914,7572,-295,41,-194,5
-4588,-914,7798,-76,-88,-141,5
-4671,-708,7798,-76,-88,-141,5
-4961,-427,8280,103,-200,-114,5
-4937,-210,8873,186,-260,-126,5
-4774,-111,9089,222,-221,-171,5
-4500,-197,8943,255,-95,-194,5
-4424,-178,8843,312,26,-184,5
-4567,-17,8848,327,80,-168,5
-4663,-9,8925,289,72,-166,5
-4567,-165,8975,246,73,-169,5
-4459,-200,9020,235,104,-166,5
-4459,-200,9020,235,104,-166,5
-4439,-144,8870,230,145,-134,5
-4876,-126,8222,-108,58,7,5
-4840,-61,8309,0,72,24,5
-4935,32,8297,72,64,34,5
-4911,179,8359,69,21,35,5
-4911,179,8359,69,21,35,5
-4823,112,8443,25,-19,34,5
-4894,92,8470,-9,-31,40,5
-4870,136,8585,-25,-37,39,5
-4521,189,8831,-55,-48,39,5
-4843,64,8877,-78,-42,32,5
-4808,-128,8590,-51,12,123,5
-4808,-128,8590,-51,12,123,5
-4640,196,8924,-42,17,128,5
-4749,294,9023,-46,54,144,5
-4874,689,9159,-86,99,127,5
-4663,673,9134,-177,116,125,5
-5023,251,9059,-250,153,116,5
-4753,-253,9270,-250,228,129,5
-4753,-253,9270,-250,228,129,5
-4478,-497,9201,-242,540,283,5
-4491,-746,9014,-244,540,283,5
-6159,-760,7617,-42,125,416,5
-5943,-2139,7344,224,-42,448,5
-4841,214,8841,303,-27,411,5
-5057,-34,8638,182,-177,417,5
-5111,-114,8943,161,-257,370,5
-5204,167,8876,221,-143,302,5
-4975,406,8831,263,-145,273,5
-5193,504,8946,205,-207,247,5
-5193,504,8946,205,-207,247,5
-5218,696,9119,124,-210,191,5
-5426,856,9298,42,-197,103,5
-5547,1255,9734,-40,-157,-26,5
-5207,1099,9513,-160,-80,-155,5
-4916,592,9879,-243,-12,-205,5
-4552,159,9808,-296,123,-186,5
-4510,-205,9207,-345,224,-101,5
-5060,-32,8650,-338,236,-7,5
-5060,-32,8650,-293,193,9,5
-4961,459,8118,-293,193,9,5
-5615,702,7392,-219,111,-47,5
-5654,417,7095,-89,-35,-124,5
-5621,-38,7546,121,-156,-205,5
-5243,41,8200,263,-232,-248,5
-4973,0,8367,317,-246,-253,5
-4703,138,8471,294,-213,-229,5
-4614,138,8701,249,-151,-181,5
-4645,107,9002,212,-71,-131,5
-4645,107,9221,138,-6,-73,5
-4573,40,9221,138,-6,-73,5
-4614,-139,9211,31,29,-28,5
-4727,-417,8977,-51,48,13,5
-4589,-494,8870,-92,45,58,5
-4351,-502,8895,-115,51,136,5
-4185,-400,9633,-92,138,257,5
-4386,282,9997,-136,264,347,5
-4748,832,9690,-256,416,376,5
-4867,1066,8865,-427,524,379,5
-5850,-1680,-7750,-537,674,354,5
-5850,-1680,-7750,-128,-177,175,5
-5892,-339,7396,-128,-177,175,5
-5289,-47,8959,413,-350,77,5
-4918,23,8700,314,-329,73,5
-5182,266,9251,179,-409,77,5
-5422,436,9135,152,-287,17,5
-5139,101,8663,166,-179,-18,5
-5023,29,8632,201,-205,-7,5
-4968,-238,8784,218,-196,15,5
-4832,21,9072,218,-144,32,5
-4832,21,9072,218,-144,32,5
-4863,508,9262,175,-143,32,5
-4995,646,9327,97,-160,7,5
-5058,614,9192,47,-163,-40,5
-4910,512,9052,20,-140,-75,5
-4819,252,8959,1,-98,-82,5
-4945,339,8986,-36,-84,-67,5
-5051,442,8925,-111,-108,-65,5
-5094,526,8968,-160,-137,-97,5
-4953,535,9345,-174,-112,-150,5
-4953,535,9345,-174,-112,-150,5
-5016,74,9327,-164,-14,-189,5
-5089,44,8901,-116,78,-208,5
-5155,465,8788,-72,108,-219,5
-5069,441,8516,-64,92,-254,5
-5111,-204,7975,-59,31,-281,5
-4943,-350,8072,29,-48,-298,5
-4816,-361,8344,160,-116,-290,5
-4779,-153,8863,233,-169,-249,5
-4795,-31,9244,183,-178,-205,5
-4795,-31,9244,183,-178,-205,5
-4780,-3,9035,109,-155,-181,5
-4747,212,9055,81,-113,-167,5
-4749,296,8924,37,-80,-158,5
-4679,177,8809,-6,-91,-145,5
-4778,46,8827,-12,-100,-132,5
-5015,-96,8766,32,-51,-142,5
-4750,-70,8782,75,-8,-153,5
-4814,-83,8758,111,34,-161,5
-4599,-171,8587,128,76,-141,5
-4543,-144,8690,134,80,-89,5
-4543,-144,8690,134,80,-89,5
-4595,-35,9030,92,61,-31,5
-4829,-105,9103,18,32,12,5
-4841,-89,8961,-28,19,19,5
-5114,-23,8701,-75,27,56,5
-4906,126,8775,-70,26,22,5
-4717,199,8723,-87,42,-6,5
-4930,175,8636,-98,48,-17,5
-4588,177,8482,-113,9,-15,5
-4588,177,8482,-113,-37,-27,5
-4984,38,8601,-117,-37,-27,5
-4861,336,8836,-164,-89,-2,5
-4721,89,8727,-218,-92,3,5
-4961,-90,8572,-213,-72,-9,5
-4855,-35,8645,-174,-41,-18,5
-4706,-135,8557,-139,6,-13,5
-4770,-228,8374,-87,18,8,5
-4840,-198,8494,-32,0,20,5
-4892,-108,8584,-17,-10,37,5
-4892,-108,8584,-4,-6,34,5
-4780,-242,8615,-4,-6,34,5
-4999,-101,8829,20,43,3,5
-4719,-81,8833,28,84,-4,5
-4893,139,8934,23,110,-12,5
-4868,62,8549,-9,94,-21,5
-4819,-108,8474,-35,30,-14,5
-4749,-190,8721,-47,-9,9,5
-4664,-96,8787,-86,-47,57,5
-4821,-25,8895,-125,-76,72,5
-4821,-25,8895,-155,-48,75,5
-5027,-223,8712,-155,-48,75,5
-4913,-216,8554,-138,-17,64,5
-4840,-216,8486,-92,0,71,5
-4772,72,8388,-54,-26,95,5
-5209,32,8376,-8,-69,63,5
-4502,184,8555,-16,-111,43,5
-5081,61,8531,-32,-103,10,5
-4852,99,8563,-26,-87,1,5
-4922,-52,8612,-14,-72,-2,5
-4485,76,9075,-43,-78,22,5
-4485,76,9075,-43,-78,22,5
-4784,-61,9726,-55,6,32,5
-4426,361,10347,-137,175,49,5
-4153,373,9711,-329,345,124,5
-7762,-653,5339,-376,-125,164,5
-5249,-2409,7105,166,-339,35,5
-4398,-898,9142,478,-211,36,5
-4400,-876,8746,492,-293,233,5
-5079,37,9092,505,-337,267,5
-5157,431,9305,446,-284,194,5
-5157,431,9305,446,-284,194,5
-4822,600,9267,357,-326,155,5
-5143,977,9308,197,-373,123,5
-5170,932,9366,52,-385,36,5
-5263,1051,9471,-74,-392,-68,5
-5124,853,9857,-139,-361,-205,5
-4549,257,10250,-158,-240,-274,5
-4219,-196,10528,-156,-37,-255,5
-4028,-376,10491,-164,198,-172,5
-4309,-412,9912,-185,350,-63,5
-4309,-412,9912,-185,350,-63,5
-4941,754,9239,-340,395,0,5
-4706,156,8580,-458,318,-6,5
-4725,-396,8414,-460,244,-1,5
-5040,-573,7633,-342,238,-15,5
-5249,-502,7466,-152,149,-39,5
-4955,-357,8080,-9,6,-65,5
-4576,-223,8169,48,-99,-52,5
-4582,-135,8411,89,-138,-18,5
-4841,-175,8769,132,-92,-3,5
-4841,-175,8769,132,-92,-3,5
-4802,114,8861,137,4,-20,5
-4563,22,8872,61,94,-40,5
-4590,-251,8821,-31,109,-42,5
-4677,-537,8874,-61,97,-22,5
-4462,-398,8676,-35,105,1,5
-4273,-521,8715,-7,133,40,5
-4224,-928,9054,60,229,117,5
-4077,-439,9269,99,340,219,5
-4158,588,10163,-45,436,325,5
-4158,588,10163,-45,436,325,5
-4607,788,9141,-315,504,361,5
-5255,247,5469,-508,467,364,5
-5742,647,9095,45,-452,222,5
-6031,-1694,8445,599,-427,39,5
-4091,486,9217,484,-346,-25,5
-4896,-138,9205,239,-518,40,5
-5231,123,9354,189,-392,-3,5
-4936,33,9092,236,-205,-53,5
-4904,-1,8995,296,-172,-44,5
-4904,-1,8995,296,-172,-44,5
-4749,-78,9180,287,-153,-19,5
-4743,-169,9254,230,-118,12,5
-4406,-253,9205,140,-130,56,5
-4636,-236,9260,56,-159,115,5
-4741,-2,9097,32,-177,166,5
-4877,252,9010,48,-177,169,5
-4887,343,9072,52,-165,148,5
-4867,468,9140,34,-139,113,5
-5094,574,9117,0,-119,64,5
-5094,574,9117,-50,-117,-6,5
-5075,569,9105,-50,-117,-6,5
-4737,354,9590,-102,-98,-62,5
-4792,76,9970,-112,27,-77,5
-5066,461,9535,-136,120,-72,5
-4778,1280,9649,-244,168,-139,5
-5217,74,8492,-363,204,-217,5
-4950,-427,7826,-307,135,-229,5
-4863,265,8898,-98,42,133,5
-4537,230,8867,-163,76,151,5
-5079,154,8536,-178,104,150,5
-5088,69,8271,-180,84,145,5
-5052,-68,8165,-174,29,133,5
-5121,-168,8277,-149,-19,134,5
-5157,-129,8574,-95,-44,127,5
-5157,-129,8574,-54,-39,81,5
-5168,145,8761,-54,-39,81,5
-4886,345,9160,-103,-1,29,5
-4786,120,9128,-213,86,10,5
-6148,-147,8877,10,-372,72,5
-5461,-2112,8036,340,-342,98,5
-4566,137,9542,408,-120,128,5
-5067,205,9276,220,-178,156,5
-5321,131,9458,127,-221,97,5
-4917,92,9471,97,-78,27,5
-5040,-111,9141,83,-45,28,5
-5040,-111,9141,83,-45,28,5
-5151,162,9215,49,-64,20,5
-5174,308,9416,-12,-16,-31,5
-5290,217,8994,-71,-20,-89,5
-5162,223,8973,-87,-47,-148,5
-5023,234,9116,-72,-18,-187,5
-5156,155,9207,-67,9,-200,5
-4858,541,9809,-113,59,-215,5
-4118,116,9585,-359,182,-217,5
-5351,-549,8230,-558,182,-152,5
-5351,-549,8230,-558,182,-152,5
-5411,-999,7765,-500,96,-125,5
-4451,-1115,7952,-290,-15,-74,5
-4599,-882,8365,-113,-91,1,5
-4736,-520,8435,-36,-106,75,5
-5028,-378,8295,53,-72,92,5
-5017,-209,8316,135,-42,77,5
-4808,-200,8425,155,-16,72,5
-4731,-198,8456,132,18,79,5
-5036,-167,8335,120,34,68,5
-5036,-167,8335,120,34,68,5
-4744,89,8670,86,10,55,5
-4881,40,8566,24,-14,37,5
-4992,-187,8489,-2,-44,18,5
-4788,-355,8626,14,-45,10,5
-4693,-417,8981,32,0,40,5
-4766,-197,9347,31,76,63,5
-4621,570,10015,-60,151,73,5
-4712,1417,9431,-298,211,62,5
-8008,727,6932,-281,-370,-14,5
-8008,727,6932,-281,-370,-14,5
-5894,-1500,7450,204,-521,-232,5
-4727,53,9592,457,-289,-329,5
-4741,-625,8998,406,-321,-202,5
-5132,-167,9481,361,-283,-185,5
-4943,-163,9281,274,-157,-197,5
-5011,-253,9054,235,-151,-188,5
-4701,-334,9022,185,-160,-161,5
-4718,-407,9180,144,-155,-117,5
-4621,-336,9180,90,-146,-81,5
-4621,-336,9180,90,-146,-81,5
-4609,-442,9232,26,-169,-54,5
-4506,-562,9236,-30,-189,-14,5
-4599,-666,9035,-40,-169,30,5
-4552,-525,8913,-23,-126,78,5
-4579,-437,8999,0,-97,122,5
-4712,-110,9166,-21,-55,136,5
-4922,247,9058,-88,-28,94,5
-4852,387,9294,-164,-21,5,5
-4833,114,9491,-229,6,-61,5
-4833,114,9491,-229,6,-104,5
-4155,295,9370,-255,171,-117,5
-5032,-520,8303,157,-14,29,5
-4868,-352,8762,175,-67,37,5
-4930,-465,9008,153,-57,39,5
-5182,-407,9018,161,1,-10,5
-5182,-407,9018,133,36,4,5
-4496,-296,9013,133,36,4,5
-4858,-278,9012,135,105,-7,5
-4691,-269,8921,145,144,-2,5
-4677,-189,8774,149,145,4,5
-4816,38,8581,140,103,-4,5
-4980,64,8440,112,25,-30,5
-4810,-171,8569,78,-54,-42,5
-4724,-369,8654,64,-78,-23,5
-4746,-413,8662,58,-37,13,5
-4746,-413,8662,75,32,12,5
-5088,-491,8642,75,32,12,5
-4567,-464,8912,75,77,27,5
-4516,-635,9048,60,92,90,5
-4747,-334,8940,75,108,141,5
-4788,-74,8809,70,97,149,5
-4779,230,8733,38,91,147,5
-4997,167,8534,21,94,122,5
-5124,105,8291,50,78,96,5
-4957,122,8317,83,64,54,5
-4957,122,8244,98,57,29,5
-5224,147,8244,98,57,29,5
-5145,171,8493,101,17,9,5
-4969,14,8670,80,-1,-4,5
-4953,-246,8731,67,4,-3,5
-4658,-105,8935,47,32,8,5
-5035,-265,8746,58,83,10,5
-4878,-99,8682,65,72,26,5
-4754,-53,8757,71,30,33,5
-4869,-163,8642,61,9,46,5
-4890,1,8781,-94,-42,76,5
-5325,-98,9001,-104,-18,59,5
-4579,38,8947,-136,0,67,5
-5076,-11,8882,-143,25,61,5
-5206,153,8873,-145,71,34,5
-5206,153,8873,-145,64,22,5
-4691,111,8550,-182,64,22,5
-5212,-242,8234,-186,56,17,5
-5298,-357,8062,-124,32,9,5
-4981,-350,8263,-56,-15,-1,5
-4937,-338,8555,-32,-48,13,5
-4957,-397,8640,-10,-59,32,5
-4900,-343,8678,12,-53,51,5
-4762,-204,8910,6,-45,81,5
-4939,-66,9243,9,7,73,5
-4939,-66,9243,-63,56,93,5
-4692,324,9142,-63,56,93,5
-5137,423,9083,-160,81,73,5
-4951,179,9061,-236,102,82,5
-4967,-125,9180,-278,175,92,5
-4969,-110,9000,-297,276,122,5
-5143,-52,8768,-323,375,142,5
-4706,-291,3578,-322,459,167,5
-4301,-372,10108,-51,-200,123,5
-5191,-1934,9516,448,-251,114,5
-5191,-1934,8524,468,-161,200,5
-4552,-612,8524,468,-161,200,5
-4977,-457,8684,434,-298,279,5
-5180,199,9263,443,-265,219,5
-4996,204,8854,367,-184,163,5
-5123,516,9175,259,-213,134,5
-5556,777,9265,106,-255,68,5
-5513,967,9290,-28,-252,-64,5
-5260,819,9463,-141,-266,-194,5
-4890,273,9799,-211,-190,-263,5
-4817,-116,9523,-249,-78,-245,5
-4817,-116,9523,-249,-78,-245,5
-4474,-184,9188,-243,14,-196,5
-4662,-367,8989,-174,116,-127,5
-5035,52,8986,-152,158,-57,5
-5138,387,9198,-204,156,-67,5
-5146,267,9011,-361,170,-117,5
-5542,-541,7745,-444,145,-163,5
-5240,-1080,7615,-287,53,-188,5
-4694,-988,8135,-42,-17,-159,5
-4832,-796,8343,81,-78,-79,5
-4832,-796,8343,81,-78,-79,5
-4783,-430,8623,84,-141,-29,5
-4955,-253,8730,37,-141,-9,5
-5178,-424,8458,40,-77,-23,5
-4801,-272,8530,70,-21,-21,5
-4907,-240,8453,72,28,-17,5
-4893,-372,8170,62,33,-16,5
-4749,-431,8368,73,-31,0,5
-4740,-516,8537,75,-64,38,5
-4907,-519,8465,85,-57,65,5
-4907,-519,8465,85,-57,65,5
-4703,-80,9346,103,-42,79,5
-4652,464,9946,29,47,70,5
-4712,453,9653,-125,140,46,5
-6244,295,-1941,-315,339,6,5
-6190,-1043,7430,-175,-205,-124,5
-4585,-177,9475,342,-353,-195,5
-4354,-745,8804,246,-332,-101,5
-5107,-674,8956,192,-373,-25,5
-5022,-220,9253,261,-252,-34,5
-5022,-220,9253,261,-252,-34,5
-4455,-449,8854,289,-139,-8,5
-4706,-424,8973,282,-111,40,5
-4706,-715,8961,256,-95,78,5
-4777,-631,8956,236,-76,102,5
-4724,-478,9109,198,-106,129,5
-4717,-253,9105,160,-131,145,5
-4789,-86,9108,143,-142,152,5
-4713,111,9141,127,-135,147,5
-4963,363,9196,90,-116,133,5
-4963,363,9196,90,-116,133,5
-5126,561,9224,12,-116,71,5
-5056,470,9160,-94,-124,-10,5
-4929,253,9018,-193,-147,-68,5
-4736,-41,8724,-222,-159,-86,5
-4772,-203,8737,-169,-145,-66,5
-4774,-198,8822,-75,-112,-36,5
-4737,-153,9101,4,-53,-14,5
-4604,-165,9426,21,37,0,5
-4858,-232,9214,-13,125,17,5
-4858,-232,9214,-13,125,2,5
-4999,167,8982,-46,135,2,5
-4780,272,9310,-108,140,-52,5
-4934,-291,8970,-151,188,-105,5
-5027,-422,8493,-132,180,-103,5
-5046,-647,8234,-34,120,-114,5
-4699,-618,8285,81,10,-103,5
-4511,-392,8541,147,-87,-57,5
-4855,-246,8615,160,-106,-42,5
-4607,-112,8786,141,-106,-18,5
-4607,-112,8786,118,-67,1,5
-4754,-168,8885,118,-67,1,5
-5174,-285,8697,139,16,-4,5
-4699,-55,8719,147,75,-37,5
-4808,-65,8602,108,117,-41,5
-4924,-227,8603,101,104,-37,5
-4893,-106,8645,152,59,-46,5
-4759,-65,8734,197,51,-60,5
-4835,-87,8702,-45,-53,115,5
-4677,111,8928,-60,-51,131,5
-4715,133,8889,-71,-9,153,5
-5069,364,9147,-80,54,133,5
-4651,332,9542,-101,114,126,5
-4906,20,9694,-115,247,104,5
-4588,-168,9926,-165,408,127,5
-4563,33,9195,-300,552,191,5
-4563,33,329,-439,566,239,5
-4336,-732,329,-439,566,239,5
-5032,-467,9053,-204,-179,262,5
-5554,-1066,9060,500,-409,228,5
-4247,244,8926,444,-337,169,5
-4570,-215,9028,253,-514,221,5
-5288,-132,9077,282,-431,197,5
-4855,94,9122,326,-232,145,5
-4886,467,9207,346,-230,135,5
-5083,342,9305,253,-274,116,5
-5078,508,9644,135,-254,67,5
-5078,508,9644,135,-254,67,5
-5233,702,9516,15,-213,-5,5
-4880,593,9554,-70,-205,-92,5
-4721,259,9808,-106,-135,-140,5
-4520,90,10045,-107,8,-131,5
-4636,264,10065,-153,147,-103,5
-4703,709,10016,-276,206,-76,5
-4638,741,9449,-496,262,-86,5
-5472,-185,7942,-656,251,-108,5
-5010,-759,7328,-535,139,-102,5
-5010,-759,7328,-535,139,-102,5
-4579,-664,7536,-246,50,-42,5
-4902,-350,7893,-7,-29,30,5
-5224,4,8236,114,-122,48,5
-5040,116,8731,146,-135,2,5
-4747,93,8818,120,-52,-37,5
-4681,-44,8575,59,40,-40,5
-4859,-276,8474,8,76,-24,5
-4700,-447,8677,-20,59,1,5
-4521,-467,8764,-43,40,47,5
-4521,-467,8764,-43,40,47,5
-4655,-464,8666,-54,38,91,5
-4460,-400,8749,-36,37,127,5
-4633,-447,9469,8,86,156,5
-4168,309,10442,14,183,194,5
-4198,1161,10004,-118,440,221,5
-4764,1599,9601,-323,675,205,5
-8845,1204,6648,-36,-241,198,5
-5843,-1378,8001,379,-439,-100,5
-5260,265,9353,533,-353,-287,5
-5260,265,9353,533,-353,-287,5
-4587,-435,8586,301,-585,-153,5
-5395,256,9570,216,-580,-178,5
-5308,415,9460,221,-365,-252,5
-5119,448,9086,208,-270,-304,5
-4742,-64,9071,167,-255,-340,5
-4346,-906,9169,144,-211,-303,5
-4043,-1182,9275,123,-147,-168,5
-4235,-1099,9347,117,-110,-7,5
-4465,-725,9541,125,-93,108,5
-4465,-725,9541,125,-93,108,5
-4711,-263,9700,94,-67,162,5
-4820,-43,9596,35,-20,164,5
-4934,38,9187,9,37,143,5
-4907,239,9049,-19,69,103,5
-4828,411,8981,-117,46,57,5
-4819,323,9249,-236,4,-1,5
-4804,21,9284,-326,23,-18,5
-4880,191,9062,-330,87,-28,5
-4503,238,8623,-338,186,-44,5
-4503,238,8623,-338,183,-21,5
-5258,-358,7616,-263,183,-21,5
-5279,-312,7783,-58,93,-15,5
-5038,-162,8218,103,10,-29,5
-5042,-126,8573,160,-50,-60,5
-4913,-161,8665,161,-53,-87,5
-4869,-319,8532,182,-21,-92,5
-4821,-265,8383,232,-4,-79,5
-4914,-168,8417,274,-17,-74,5
-4834,-81,8715,273,-29,-80,5
-4834,-81,8715,222,-18,-86,5
-4773,-163,9007,222,-18,-86,5
-4843,-357,8932,181,7,-84,5
-4816,-454,8952,211,21,-67,5
-4743,-271,8962,264,58,-54,5
-4675,-118,8834,260,97,-41,5
-4587,-82,8873,203,95,-18,5
-4666,-32,8824,123,64,17,5
-4603,-63,8780,40,9,63,5
-4704,17,8685,-18,-33,113,5
-4955,141,8659,-37,-34,128,5
-5118,552,8781,76,15,-19,5
-4938,269,8855,48,8,-49,5
-4833,58,8742,26,9,-57,5
-4904,178,8763,4,23,-58,5
-4682,35,8611,-17,7,-33,5
-4993,11,8560,-19,-3,-18,5
-4993,11,8560,-19,-3,-18,5
-4791,-11,8647,-1,-15,-8,5
-4963,-116,8507,42,7,0,5
-4777,43,8678,64,4,4,5
-4815,29,8529,62,-20,7,5
-4967,55,8470,50,-66,9,5
-4862,49,8447,54,-103,1,5
-4569,-65,8431,61,-111,7,5
-5004,-287,8307,-130,9,74,5
-4917,-251,8367,-75,4,81,5
-4863,-258,8443,-26,26,78,5
-4632,-235,8602,0,32,91,5
-4352,-139,8724,-34,-6,150,5
-5016,521,8733,-132,-4,106,5
-5150,613,8841,-132,-4,106,5
-5097,342,9002,-128,23,34,5
-5052,-47,9220,-136,92,-14,5
-4723,-87,9192,-160,180,-23,5
-4642,-95,9145,-233,256,25,5
-4642,-95,9145,-350,246,97,5
-3899,-1057,-3151,-350,246,97,5
-5257,-1045,8376,-150,-171,119,5
-4827,-1135,9122,328,-198,161,5
-4727,-648,8967,414,-122,213,5
-4668,-528,9069,383,-141,270,5
-5120,-46,9269,398,-88,256,5
-5169,101,8782,364,-86,225,5
-4949,330,8906,279,-188,191,5
-5140,658,9018,167,-263,154,5
-5140,658,9235,73,-265,60,5
-5460,1194,9235,73,-265,60,5
-5546,1335,9473,-36,-262,-100,5
-4928,659,9718,-138,-232,-231,5
-4194,-47,9798,-183,-85,-237,5
-4505,-382,9647,-193,90,-138,5
-4610,-98,9513,-187,188,-32,5
-4711,-117,9694,-221,238,34,5
-5613,836,9537,-300,263,25,5
-5321,775,8597,-480,270,-88,5
-5033,-598,7524,-511,180,-182,5
-5033,-598,7524,-257,72,-200,5
-4744,-951,7296,-257,72,-200,5
-4540,-917,7410,18,-45,-111,5
-4906,-521,7922,216,-197,-7,5
-5047,-41,8705,279,-277,28,5
-4951,-55,8941,276,-225,-10,5
-4487,47,8794,204,-94,1,5
-4517,174,8889,119,30,27,5
-4705,99,8640,37,68,51,5
-4821,-15,8456,-13,31,54,5
-4821,-15,8456,-13,31,54,5
-4783,-89,8495,-45,-9,39,5
-4747,-239,8484,-55,-26,32,5
-4674,-296,8678,-21,-34,48,5
-4719,-364,9278,36,3,64,5
-4299,267,10191,40,133,82,5
-4387,981,9483,-135,334,100,5
-4615,684,8967,-352,461,144,5
-8152,-922,4185,-19,-124,180,5
-5286,-1569,8696,503,-215,36,5
-5286,-1569,8696,503,-215,36,5
-4444,283,9340,609,-76,46,5
-5120,-271,8906,456,-269,183,5
-5377,424,9285,377,-295,125,5
-5144,344,9284,345,-185,26,5
-4877,160,9025,312,-160,9,5
-4762,136,9160,255,-162,23,5
-4682,45,9211,178,-142,56,5
-4811,279,9349,95,-137,74,5
-4872,582,9349,7,-151,74,5
-4872,582,9349,7,-151,74,5
-5124,713,9268,-28,-140,29,5
-4949,600,9166,-32,-97,-36,5
-4861,386,9077,-34,-48,-59,5
-4755,308,8873,-53,-18,-48,5
-4797,308,8762,-102,-43,-29,5
-4985,277,8744,-142,-92,-18,5
-5102,559,9128,-156,-113,-47,5
-5034,744,9512,-194,-53,-123,5
-5053,440,9214,-251,31,-190,5
-5053,440,9048,-285,74,-227,5
-4853,425,9048,-285,74,-227,5
-4723,76,8703,-348,96,-228,5
-4821,-422,8100,-352,45,-191,5
-4980,-748,7849,-252,-50,-156,5
-5014,-734,8182,-70,-103,-153,5
-4773,-448,8744,74,-117,-135,5
-4677,-386,8746,125,-117,-127,5
-4585,-406,8784,139,-121,-107,5
-4529,-294,8961,155,-99,-69,5
-4529,-294,8961,155,-99,-26,5
-4470,-289,9114,156,-45,-26,5
-4505,-98,9071,122,9,17,5
-4795,-81,8980,83,58,44,5
-4937,-15,8912,82,97,19,5
-4666,101,8724,80,105,16,5
-4841,-1,8490,73,121,25,5
-5077,178,8605,90,117,-3,5
-4839,411,8650,64,71,-29,5
-4789,282,8691,-15,27,-53,5
-4789,282,8691,-57,-3,-52,5
-4788,-23,8573,-57,-3,-52,5
-4721,-324,8511,-31,-6,-37,5
-4710,-323,8557,18,8,-6,5
-4742,-185,8538,48,2,29,5
-4788,-51,8494,53,-12,54,5
-4887,-107,8333,67,-2,61,5
-4919,116,8782,76,15,39,5
-4747,-51,8964,64,38,39,5
-5095,-235,8720,76,64,28,5
-5095,-235,8720,81,50,60,5
-4476,61,8975,65,63,90,5
-4493,-61,8632,-79,-33,108,5
-4808,-81,8508,-78,-42,133,5
-4794,37,8563,-70,-57,152,5
-4887,311,9000,-67,-39,136,5
-5029,337,9597,-69,34,94,5
-4572,568,9774,-135,153,45,5
-4520,409,9786,-280,321,47,5
-4721,38,9218,-400,469,83,5
-4721,38,9218,-400,469,83,5
-4761,-451,12252,-332,-260,190,5
-5727,-2924,8005,225,-328,207,5
-4632,-137,9256,431,-116,183,5
-4948,-390,8475,299,-241,268,5
-5252,108,9052,295,-306,213,5
-4955,76,9128,295,-162,121,5
-4819,177,9067,285,-169,101,5
-5113,222,9254,200,-218,97,5
-5580,832,9444,97,-219,32,5
-5580,832,9444,97,-219,-102,5
-5418,1013,9207,-26,-226,-102,5
-4642,349,9712,-112,-230,-212,5
-4499,-175,9925,-137,-103,-186,5
-4545,-251,9577,-145,47,-97,5
-4906,-195,9326,-135,122,-43,5
-4894,266,9719,-143,171,-29,5
-5064,1154,10078,-276,237,-69,5
-5042,880,9285,-527,291,-172,5
-5219,-330,7951,-657,262,-263,5
-5219,-330,7951,-496,204,-270,5
-4996,-1105,7088,-496,204,-270,5
-4713,-1123,7136,-134,88,-210,5
-4949,-792,7485,105,-59,-122,5
-4904,-437,8439,161,-210,-59,5
-4916,-329,8760,172,-218,-64,5
-4597,-418,8699,160,-120,-46,5
-4482,-465,8761,162,-1,-9,5
-4532,-305,8900,125,74,43,5
-4482,-354,8743,36,77,103,5
-4646,-368,9111,43,10,144,5
-4646,-368,9111,43,10,144,5
-4547,-38,9701,58,91,156,5
-4147,829,9751,-58,194,159,5
-4137,638,5414,-243,389,167,5
-5472,692,10074,3,-264,102,5
-5260,-388,8617,516,-279,-52,5
-5260,-388,8873,426,-219,-141,5
-4858,309,8873,426,-219,-141,5
-5029,-222,9162,281,-387,-106,5
-5148,-19,9605,291,-257,-142,5
-4808,-96,9201,300,-75,-135,5
-4744,-80,9016,304,-72,-81,5
-4782,-391,9087,274,-54,-30,5
-4925,-410,9035,241,-31,11,5
-4992,-296,9078,198,-66,23,5
-4695,-272,8998,125,-139,39,5
-4697,-290,8872,67,-204,77,5
-4697,-290,8872,67,-204,77,5
-4740,51,8781,47,-251,109,5
-4951,309,8892,36,-279,106,5
-4938,452,9154,-3,-279,55,5
-4779,282,9339,-67,-241,-3,5
-4731,168,9406,-111,-175,-37,5
-4500,7,9728,-124,-79,-34,5
-4699,65,9785,-105,70,-32,5
-4865,299,9302,-117,153,-21,5
-4990,293,9062,-158,164,-36,5
-4990,293,9062,-158,164,-36,5
-4642,356,9020,-182,174,-74,5
-4565,294,8946,-273,208,-65,5
-5302,-336,8061,-320,198,-48,5
-5203,-405,7735,-208,101,-58,5
-4820,-285,7975,-51,3,-70,5
-4768,-258,8261,56,-72,-62,5
-4882,-44,8488,88,-127,-57,5
-5099,-111,8493,110,-138,-71,5
-4856,-89,8654,161,-121,-110,5
-4856,-89,8654,161,-121,-110,5
-4893,-63,8854,188,-73,-138,5
-4571,-236,9048,163,-32,-118,5
-4661,-528,9091,165,9,-81,5
-4533,-290,8950,177,48,-44,5
-4582,-100,8888,146,71,-3,5
-4704,5,8852,77,61,13,5
-4613,31,8774,-10,11,26,5
-4767,-157,8693,-56,-23,40,5
-4820,-323,8605,-39,-14,39,5
-4820,-323,8605,-39,-14,39,5
-4743,-331,8590,9,14,39,5
-4725,-244,8630,51,42,49,5
-5103,5,8403,105,44,49,5
-5071,-4,8602,152,13,-2,5
-4650,-142,8992,138,0,-17,5
-4582,-101,8931,113,36,1,5
-4591,81,8884,89,48,44,5
-4724,206,8553,35,22,73,5
-5032,192,8593,-11,-27,67,5
-5032,192,8593,-11,-27,67,5
-4993,160,8606,-28,-53,42,5
-4820,142,8706,-26,-55,28,5
-4922,119,8727,-15,-43,23,5
-4950,120,8687,-1,-37,17,5
-4821,149,8734,8,-38,8,5
-4773,179,8734,-12,-35,9,5
-4827,90,8695,-34,-29,5,5
-4735,20,9073,-46,23,-74,5
-4113,20,9080,-106,20,-38,5
-4843,87,9212,-129,50,-11,5
-4804,156,8851,-162,76,-8,5
-4549,99,8785,-177,65,-15,5
-4789,-175,8440,-155,81,6,5
-4789,-175,8132,-69,69,23,5
-4743,-210,8132,-69,69,23,5
-4703,-171,8292,1,25,37,5
-5023,-66,8472,35,3,53,5
-4788,-35,8603,43,-18,58,5
-4790,90,8773,1,-37,73,5
-4673,15,8934,-65,-23,70,5
-4423,-112,8982,-144,-6,104,5
-4811,-252,8770,-171,16,124,5
-4890,-144,8706,-153,37,135,5
-4908,3,8652,-131,57,122,5
-4908,3,8652,-131,57,122,5
-4747,205,8803,-145,31,108,5
-5046,-35,8597,-142,4,103,5
-4918,-22,8645,-128,-15,92,5
-4717,-120,8846,-109,0,81,5
-4445,-19,9078,-131,28,104,5
-4798,-149,8855,-149,80,147,5
-4895,-13,8866,-166,105,163,5
-4725,291,9371,-180,132,151,5
-4719,84,9473,-171,198,178,5
-4719,84,9473,-171,198,178,5
-4764,514,9133,-180,301,162,5
-4962,301,8762,-249,383,145,5
-5265,-162,8469,-285,412,137,5
-5230,-84,8218,-265,378,127,5
-5167,-92,7981,-284,300,127,5
-6040,-406,8152,-30,-221,196,5
-5980,-1645,7334,277,-326,162,5
-4869,242,8926,351,-260,99,5
-4750,137,8957,209,-337,122,5
-4750,137,8957,209,-337,122,5
-5033,-133,8969,163,-304,101,5
-4957,-95,8909,191,-160,84,5
-4752,-62,8910,211,-156,112,5
-4817,-77,9151,155,-189,144,5
-5022,104,9562,84,-146,136,5
-5468,604,9698,-7,-95,72,5
-5383,978,9431,-103,-61,-55,5
-5120,656,9058,-174,-40,-172,5
-4796,27,9047,-176,12,-236,5
-4796,27,9047,-176,12,-236,5
-4297,-385,9156,-149,102,-205,5
-4621,-425,9164,-151,185,-85,5
-5556,-382,8299,-166,188,-10,5
-5182,-443,8122,-134,83,1,5
-4837,-461,8114,-69,-31,18,5
-5024,-372,8264,56,-90,11,5
-4965,38,8516,130,-133,16,5
-5105,86,8617,142,-141,-8,5
-4872,178,8684,121,-130,-35,5
-4872,178,8684,121,-130,-35,5
-4670,165,8725,67,-102,-24,5
-4788,53,8678,23,-62,-2,5
-4864,4,8560,10,-28,11,5
-4882,-53,8563,-3,-14,18,5
-4905,-96,8612,-4,-3,18,5
-4776,-133,8560,-1,-6,29,5
-4817,-291,8534,12,-12,48,5
-4758,-105,9022,58,14,57,5
-4695,64,9662,64,109,60,5
-4695,64,9662,64,224,84,5
-4353,384,10246,-12,224,84,5
-4441,760,9281,-198,444,125,5
-8282,-848,-2402,-340,475,124,5
-6232,-1813,7177,93,-160,-48,5
-4392,-21,9311,538,-244,-79,5
-4358,-655,8815,482,-262,64,5
-5108,8,9190,424,-288,117,5
-5207,343,9280,357,-171,64,5
-4911,181,8925,285,-145,42,5
-4911,181,8925,216,-165,40,5
-5010,223,9000,216,-165,40,5
-4859,147,9029,145,-161,64,5
-5125,592,9071,91,-145,59,5
-5217,1079,9114,12,-160,-18,5
-5172,882,8932,-64,-200,-131,5
-4790,521,8872,-91,-228,-216,5
-4660,-55,9043,-81,-205,-233,5
-4517,-364,9236,-62,-159,-173,5
-4764,-391,9269,-61,-86,-95,5
-4764,-391,9269,-95,-44,-10,5
-4637,-265,9049,-95,-44,-10,5
-4863,-212,8868,-117,-34,38,5
-4911,-258,8967,-104,-45,65,5
-4997,181,9114,-88,-55,61,5
-5140,552,9373,-100,-34,0,5
-5148,660,9250,-133,3,-105,5
-4992,850,9261,-205,28,-203,5
-4906,-77,8595,-288,78,-276,5
-4779,-308,8727,210,-113,-113,5
-4706,-122,8959,215,-122,-98,5
-4706,-122,8959,215,-122,-98,5
-4601,-165,8986,178,-61,-81,5
-4387,-77,9059,137,-4,-40,5
-4470,-62,8946,77,36,12,5
-4681,-77,8925,36,48,47,5
-4809,-147,8952,35,65,55,5
-4804,7,8409,179,103,23,5
-4733,-9,8434,162,56,13,5
-4840,-87,8435,120,10,19,5
-4889,-211,8316,109,-28,26,5
-5078,-114,8571,141,-20,-10,5
-4701,57,8775,156,-10,-12,5
-4710,184,8980,124,-4,-1,5
-4710,184,8980,124,-4,-1,5
-4805,181,9147,88,-22,10,5
-5071,59,9245,100,12,-9,5
-4551,235,8994,92,64,0,5
-4634,235,8858,39,104,36,5
-5056,172,8601,0,69,64,5
-5129,223,8480,-14,4,52,5
-4998,276,8514,-21,-39,25,5
-4918,168,8410,-12,-39,6,5
-5085,295,8555,8,-29,-34,5
-5085,295,8555,8,-29,-34,5
-4783,156,8593,26,-45,-28,5
-5032,84,8687,23,-51,-17,5
-4817,29,8818,31,-61,-12,5
-4746,89,8975,7,-31,0,5
-4794,-17,8863,-23,3,15,5
-4772,-10,8749,-19,0,34,5
-4804,-7,8746,-6,-11,53,5
-4890,23,8682,23,-2,62,5
-4954,154,8551,55,14,59,5
-4954,154,8551,55,14,59,5
-4967,267,8488,65,9,47,5
-4985,226,8443,71,-10,34,5
-4890,98,8501,86,-23,12,5
-4713,211,8447,80,-43,16,5
-4948,186,8417,51,-78,17,5
-5008,145,8602,44,-117,5,5
-4810,32,8932,43,-120,-10,5
-4833,77,8836,28,-92,-3,5
-4707,22,8729,21,-72,4,5
-4707,22,8729,21,-72,4,5
-4742,86,8712,21,-69,21,5
-4816,122,8645,23,-83,39,5
-4803,129,8601,29,-101,52,5
-4941,130,8758,59,-98,53,5
-4832,180,8646,89,-87,54,5
-4911,229,8702,106,-83,51,5
-5205,267,8683,134,-70,43,5
-4791,277,9126,151,-48,25,5
-4853,323,9393,117,-24,23,5
-4853,323,9393,48,-5,21,5
-4867,273,9323,48,-5,21,5
-4883,265,9062,-12,-12,7,5
-4758,254,9127,-53,-45,4,5
-4789,145,9064,-73,-50,15,5
-4829,157,9066,-59,-38,28,5
-4872,253,8952,-46,-17,36,5
-4892,244,8699,-40,0,32,5
-4901,273,8512,-34,-4,28,5
-4882,260,8517,-21,-22,28,5
-4882,260,8517,-10,-26,24,5
-4861,244,8623,-10,-26,24,5
-4883,256,8792,0,-14,17,5
-4841,251,8828,6,-4,1,5
-4765,256,8992,11,-4,-6,5
-4783,122,8971,13,12,-1,5
-4744,75,8916,19,23,13,5
-4770,108,8827,18,35,31,5
-4804,168,8709,8,30,47,5
-4905,223,8671,-11,3,50,5
-4905,223,8708,-35,-28,44,5
-4886,254,8708,-35,-28,44,5
-4859,198,8624,-37,-27,36,5
-4820,221,8569,-21,-14,32,5
-4889,321,8567,-3,-16,25,5
-4919,364,8708,-1,-41,9,5
-4887,272,8804,-14,-57,-11,5
-4729,102,8756,-20,-48,-22,5
-4671,98,8718,-16,-21,-12,5
-4773,87,8630,1,-16,4,5
-4899,180,8749,22,-33,11,5
-4899,180,8749,22,-33,11,5
-4904,224,8906,10,-51,-2,5
-4773,169,8891,-25,-50,-16,5
-4715,38,8713,-47,-36,-14,5
-4738,39,8664,-43,-39,0,5
-4817,59,8851,-38,-59,20,5
-4731,95,8888,-50,-62,34,5
-4694,112,8762,-69,-36,42,5
-4768,131,8535,-74,-6,53,5
-4807,144,8580,-42,-14,57,5
-4807,144,8580,-42,-14,57,5
-4960,336,8828,-6,-55,46,5
-4995,415,8998,-15,-72,22,5
-4827,281,8988,-43,-54,-5,5
-4756,189,8781,-61,-17,-18,5
-4805,66,8616,-50,-1,-10,5
-4779,5,8612,-5,-12,6,5
-4731,-25,8746,38,-17,23,5
-4683,95,8839,125,-8,60,5
-5006,358,8866,102,-5,65,5
-5075,581,9036,22,-48,29,5
-4791,387,8991,-65,-68,-15,5
-4762,119,8780,-89,-49,-28,5
-4761,75,8591,-60,-29,-14,5
-4789,22,8608,-14,-32,5,5
-4837,131,8679,18,-51,18,5
-5521,880,9759,-35,-4,31,5
-5493,1052,9412,-115,44,-128,5
-4638,1289,9573,-260,80,-274,5
-4817,-183,8877,-428,130,-303,5
-5270,-510,8137,-414,96,-265,5
-5270,-510,8137,-414,96,-265,5
-5330,-793,7741,-227,20,-247,5
-4784,-415,8291,-46,-88,-191,5
-4649,-195,8541,14,-149,-120,5
-4917,-173,8557,21,-149,-67,5
-4930,-275,8568,47,-91,-57,5
-4734,-337,8492,78,-7,-51,5
-4700,-344,8589,118,75,-51,5
-4543,-345,8566,103,114,-15,5
-4679,-361,8505,67,79,23,5
-4679,-361,8505,67,79,23,5
-4875,-387,8402,47,19,50,5
-4626,-431,8593,40,-18,70,5
-4537,-352,8864,33,0,111,5
-4261,-378,9239,7,67,168,5
-4333,-96,9616,-26,200,250,5
-4704,-196,9988,-53,363,307,5
-4772,684,9795,-114,515,298,5
-9085,1168,6370,192,-172,334,5
-5469,-879,8068,510,-280,98,5
-5469,-879,8068,604,-159,-111,5
-5757,735,9223,604,-159,-111,5
-5006,89,8411,369,-427,-77,5
-5224,195,9491,315,-447,-160,5
-4985,126,9253,343,-224,-207,5
-5077,-46,8994,397,-144,-189,5
-4707,-95,9022,400,-115,-166,5
-4481,-509,9104,362,-70,-103,5
-4481,-702,9134,299,-36,-1,5
-4658,-717,9025,231,-64,111,5
-4658,-717,9025,231,-64,111,5
-4671,-411,9090,174,-127,194,5
-4845,166,9235,133,-145,232,5
-5021,835,9678,72,-135,215,5
-5284,1292,10053,-58,-90,116,5
-5187,1076,9832,-229,-18,-26,5
-4835,470,9297,-368,28,-115,5
-4671,118,8997,-425,46,-111,5
-4666,-98,8679,-394,59,-50,5
-4888,-22,8762,-288,64,20,5
-4888,-22,8762,-288,122,48,5
-5085,192,9059,-197,122,48,5
-5375,489,8769,-171,204,25,5
-5234,637,8445,-225,220,-38,5
-4934,32,7978,-296,180,-82,5
-5297,-355,7339,-268,94,-67,5
-5117,-549,7397,-95,-19,-48,5
-4889,-415,8352,86,-111,-29,5
-4865,72,8910,133,-149,-10,5
-5085,105,9013,90,-155,-28,5
-5085,105,9013,59,-147,-70,5
-5046,-8,8868,59,-147,-70,5
-4780,-216,8860,45,-112,-83,5
-4668,-527,8766,51,-54,-51,5
-4724,-391,8750,78,-17,-10,5
-4876,-177,8813,86,-7,25,5
-4975,-68,8647,87,4,39,5
-5054,-165,8432,117,27,32,5
-4922,174,8519,152,22,8,5
-4898,184,8487,152,9,-1,5
-4898,184,8487,122,-46,-9,5
-4840,173,8498,122,-46,-9,5
-4865,132,8650,85,-102,-16,5
-4919,13,8711,57,-114,-28,5
-4877,-72,8776,49,-83,-37,5
-4800,-160,8834,51,-41,-28,5
-4662,-169,8721,60,-6,-3,5
-5187,-155,8640,138,47,-39,5
-4679,88,8693,163,47,-26,5
-4929,101,8638,169,34,-18,5
-4995,124,8502,185,3,-12,5
-4995,124,8502,185,3,-12,5
-4928,281,8645,193,-18,-21,5
-4884,387,8770,175,-21,-22,5
-5012,354,8764,136,-19,-21,5
-5066,350,8706,79,-56,-23,5
-4985,350,8713,29,-98,-42,5
-4980,3,8646,37,-84,-70,5
-4706,162,8849,43,-59,-51,5
-4928,90,8938,34,-38,-27,5
-4990,132,8688,23,-32,-23,5
-4990,132,8688,23,-32,-23,5
-4932,104,8475,20,-46,-36,5
-4834,26,8469,30,-65,-40,5
-5008,-3,8587,78,-62,-58,5
-4784,3,8551,114,-65,-43,5
-5016,190,8733,133,-56,-59,5
-4789,185,8606,128,-57,-60,5
-4685,195,8657,89,-100,-31,5
-4837,183,8859,51,-149,-1,5
-4910,163,8793,21,-163,3,5
-4910,163,8793,21,-163,3,5
-4811,90,8703,11,-142,4,5
-4907,198,8662,21,-114,0,5
-4968,195,8628,34,-120,-14,5
-4856,173,8679,42,-136,-34,5
-4768,112,8653,43,-131,-46,5
-4652,98,8560,51,-120,-44,5
-4856,175,8695,73,-112,-59,5
-5026,150,8798,-65,1,-29,5
-4826,166,8848,-86,-10,-21,5
-5065,275,9038,-113,21,-64,5
-4874,228,8797,-185,54,-103,5
-4622,63,8816,-258,37,-89,5
-4920,-367,8568,-243,39,-66,5
-4811,-370,8447,-185,47,-23,5
-4811,-370,8447,-185,61,6,5
-4907,-516,8274,-102,61,6,5
-4895,-349,8191,-28,68,33,5
-4564,-189,8413,-12,25,71,5
-4864,-212,8494,-36,-34,105,5
-5115,-217,8476,-52,-45,100,5
-4983,-191,8553,-52,-23,69,5
-4924,-177,8550,-36,7,45,5
-4895,-138,8583,3,7,43,5
-4985,77,8767,25,-22,39,5
-4985,77,8767,-24,-59,44,5
-4835,87,8857,-24,-59,44,5
-4560,126,9081,-117,-87,51,5
-4723,-123,9243,-188,-47,68,5
-4800,114,9146,-233,17,93,5
-4923,-49,9036,-284,98,115,5
-4990,-179,8956,-299,162,117,5
-4563,-375,9072,-301,209,147,5
-4677,-508,9187,-280,274,213,5
-4777,-45,9241,-255,369,262,5
-4777,-45,9241,-290,448,265,5
-4999,520,8726,-290,448,265,5
-5651,411,8252,-318,453,211,5
-7012,157,8157,48,-235,163,5
-6412,-1211,7452,317,-301,43,5
-4929,613,9304,280,-257,-74,5
-5071,52,8933,37,-396,-56,5
-5026,-285,9055,-41,-348,-73,5
-5108,-342,8839,36,-159,-77,5
-4834,-403,8842,147,-100,-22,5
-4881,-403,9007,156,-81,32,5
-4881,-373,9007,156,-81,32,5
-4947,-457,9203,105,-47,59,5
-4892,-289,9373,20,-25,67,5
-5163,-101,9139,-65,-18,54,5
-5459,648,8898,-98,-25,-34,5
-5502,687,9079,-132,-31,-173,5
-4518,570,9920,-263,70,-273,5
-5475,-421,8909,-437,183,-307,5
-5426,-1331,7747,-436,125,-298,5
-4829,-1412,7881,-211,-10,-244,5
-4829,-1412,7881,-211,-10,-244,5
-4447,-1168,8348,20,-100,-114,5
-4687,-866,8435,138,-138,28,5
-5156,-520,8595,226,-102,94,5
-5197,-380,8557,297,-7,81,5
-4876,-303,8572,312,87,63,5
-4545,-228,8508,227,150,81,5
-4686,-263,8392,116,128,128,5
-4856,-118,8343,50,61,167,5
-5132,9,8270,17,-5,150,5
-5132,9,8270,17,-5,150,5
-5144,129,8405,3,-43,97,5
-4997,25,8498,-4,-46,51,5
-4972,46,8303,-17,-49,23,5
-4956,-198,8184,-22,-85,19,5
-4834,-332,8566,6,-101,30,5
-4134,-277,9749,39,10,76,5
-4124,93,9745,-40,219,186,5
-6683,135,10701,287,-274,254,5
-4762,-747,9154,610,-199,179,5
-4762,-747,9154,610,-199,179,5
-5477,361,9486,583,-23,87,5
-5172,337,9268,394,-175,84,5
-5330,288,9689,304,-145,-18,5
-4937,33,9302,223,19,-54,5
-5004,14,8971,180,6,-14,5
-5036,28,8805,116,-60,17,5
-4935,-20,8811,46,-87,36,5
-5040,-163,8700,1,-108,55,5
-5054,-128,8784,-5,-117,72,5
-5054,-128,8784,-5,-117,72,5
-4944,-89,8622,23,-107,88,5
-4895,-83,8699,39,-116,115,5
-5129,111,8833,35,-121,130,5
-4996,254,8860,3,-121,108,5
-5133,195,8955,-28,-105,75,5
-5071,-20,8699,-36,-71,53,5
-4943,13,8589,-24,-81,56,5
-5018,303,8688,-20,-123,47,5
-5117,660,8878,-65,-171,10,5
-5117,660,8878,-65,-171,10,5
-5206,677,9064,-144,-177,-76,5
-5102,285,9286,-205,-122,-161,5
-4880,650,9494,-277,-14,-218,5
-5032,82,8726,-388,55,-234,5
-4900,-540,7813,-362,18,-236,5
-4792,-926,7529,-153,-53,-199,5
-4834,-748,7734,155,-114,-141,5
-5123,-325,8324,375,-156,-125,5
-4776,-70,8915,426,-193,-122,5
-4776,-70,8915,376,-167,-116,5
-4699,-26,9166,376,-167,-116,5
-4567,22,9131,286,-113,-86,5
-4621,47,9099,186,-59,-42,5
-4941,-125,8870,102,-14,-18,5
-4882,-217,8961,84,0,-21,5
-5033,-332,7963,-56,53,-18,5
-4917,-293,8146,-10,11,-9,5
-4486,-128,8407,-13,-34,19,5
-5193,-71,8390,-25,-71,28,5
-4907,-16,8846,-36,-76,0,5
-4889,-15,8801,-82,-43,-21,5
-4800,-175,8819,-119,-21,-26,5
-4881,-223,8848,-106,-9,-10,5
-4881,-223,8848,-67,17,2,5
-4765,-192,8971,-67,17,2,5
-4962,-256,8597,-50,50,10,5
-4981,-350,8518,-45,65,10,5
-4981,-337,8431,-37,42,16,5
-4882,-235,8356,-39,4,29,5
-4941,-266,8471,-34,-16,40,5
-4954,-183,8654,-11,-11,36,5
-4801,-206,8731,3,6,37,5
-4887,68,8842,17,29,45,5
-4887,68,8842,-39,34,72,5
-4488,382,9013,-39,34,72,5
-5209,326,8900,-92,46,47,5
-5123,82,8505,-128,70,31,5
-5270,-175,8377,-135,79,0,5
-5235,-551,8444,-103,84,-13,5
-4917,-831,8925,-40,116,3,5
-4170,-118,9255,-47,173,65,5
-3625,209,3676,-243,217,178,5
-4758,-478,10333,-210,-241,249,5
-5424,-704,9796,325,-354,230,5
-5424,-704,9796,325,-354,230,5
-4913,111,9275,328,-243,140,5
-4908,-81,9446,115,-291,89,5
-5054,-128,9689,89,-220,36,5
-5164,-329,9198,153,-98,27,5
-4738,-233,9180,194,-87,44,5
-5096,-283,8928,169,-101,78,5
-5154,-98,8866,129,-82,73,5
-5309,272,9010,61,-113,38,5
-5109,232,9212,-24,-139,-20,5
-5109,232,9212,-24,-117,-92,5
-5215,192,9007,-77,-117,-92,5
-4875,80,9224,-73,-81,-149,5
-4895,199,9495,-65,-1,-171,5
-4540,818,9639,-202,69,-178,5
-4910,117,9324,-415,81,-185,5
-5371,-559,8793,-489,64,-183,5
-5149,-972,7975,-399,65,-181,5
-4667,-1123,7907,-199,21,-118,5
-4679,-618,8049,-29,-27,-36,5
-4679,-618,8049,-29,-27,-36,5
-4969,-441,8111,50,-78,19,5
-5193,-384,8261,98,-121,21,5
-4809,-325,8712,124,-106,-2,5
-4411,-308,8971,94,-15,24,5
-4633,-409,8621,37,65,62,5
-4850,-439,8415,9,72,84,5
-4715,-390,8468,-10,35,88,5
-4681,-267,8731,-17,13,93,5
-4758,-320,9111,2,44,87,5
-4758,-320,9111,2,44,87,5
-4493,-293,10030,39,180,95,5
-4344,156,10057,-51,351,129,5
-4332,429,9304,-257,536,178,5
-8130,-2215,-4577,-342,626,219,5
-6509,-2094,6458,-3,-69,137,5
-4487,102,9275,482,-259,91,5
-4588,-571,8203,415,-274,189,5
-5292,-165,8925,339,-350,191,5
-5340,92,9193,343,-246,106,5
-5340,92,9193,343,-246,106,5
-5084,-41,8937,346,-161,62,5
-5076,1,8859,316,-164,51,5
-5040,-126,8831,271,-195,48,5
-4998,-82,8976,211,-211,40,5
-4889,2,8993,167,-231,37,5
-4728,75,8941,152,-251,42,5
-4898,163,9016,149,-247,50,5
-5008,223,9308,117,-232,42,5
-4990,436,9840,33,-183,14,5
-4990,436,9840,-103,-83,-43,5
-5078,602,9822,-103,-83,-43,5
-4704,392,9601,-255,-45,-82,5
-4722,-44,9804,-328,6,-84,5
-4942,-226,9302,-327,82,-67,5
-5192,31,8801,-287,102,-63,5
-5410,476,8536,-260,108,-120,5
-4953,87,7932,-263,75,-192,5
-5014,-490,7692,-160,-19,-215,5
-4855,-581,7889,2,-84,-196,5
-4855,-581,7889,143,-145,-144,5
-4642,-664,8122,143,-145,-144,5
-4938,-415,8632,245,-156,-106,5
-4902,-21,9037,274,-123,-83,5
-4813,14,9079,254,-80,-105,5
-4637,-84,9122,199,-26,-114,5
-4386,-242,9270,125,32,-73,5
-4380,-349,8918,51,69,4,5
-4614,-437,8665,29,63,69,5
-4820,-368,8632,52,49,90,5
-4820,-368,8632,65,53,99,5
-4796,-239,8663,65,53,99,5
-4874,-337,8457,80,58,100,5
-4960,-139,8484,109,38,89,5
-4967,-156,8358,140,7,62,5
-4667,-49,8786,-143,80,-68,5
-4734,-101,8676,-130,80,-68,5
-4510,-355,8420,-103,76,-36,5
-4639,-138,8195,-70,40,27,5
-5368,-342,8035,-25,-11,21,5
-4938,-195,8365,58,-69,-1,5
-4686,-39,8721,94,-65,-7,5
-4861,-88,8712,65,-24,-12,5
-4984,-116,8605,38,-6,-21,5
-4779,-154,8644,21,-25,-31,5
-4779,-154,8644,-12,-35,-32,5
-4713,-108,8683,-12,-35,-32,5
-4825,-104,8758,-57,-46,-26,5
-4851,-124,8849,-82,-59,-21,5
-4856,-75,9061,-82,-54,-15,5
-4548,-11,8916,-100,-23,10,5
-5118,-183,8486,-98,15,8,5
-4900,-192,8456,-36,24,-7,5
-4868,-195,8641,20,17,-15,5
-4797,-222,8510,35,4,1,5
-4797,-222,8510,42,-28,20,5
-4911,-254,8483,42,-28,20,5
-4577,-104,8726,23,-70,54,5
-5032,-137,8617,12,-86,54,5
-4493,-9,9017,-4,-74,67,5
-4963,45,8697,-60,-47,73,5
-4667,34,8678,-91,-72,90,5
-5028,-139,8463,-71,-81,82,5
-5064,-37,8591,-10,-79,61,5
-4835,235,8889,42,-38,33,5
-4890,345,9061,53,21,12,5
-4890,345,9061,53,21,12,5
-4835,360,9219,40,78,-4,5
-4281,-16,9958,-10,155,28,5
-3967,-270,10311,-106,292,133,5
-4524,-266,9722,-248,436,210,5
-8421,-2032,-4724,-185,185,304,5
-6495,-2921,5833,132,-136,226,5
-4783,1141,10088,510,-181,145,5
-4841,-293,8366,268,-339,185,5
-4941,68,9247,185,-451,141,5
-4941,68,9247,185,-451,141,5
-5210,301,9353,246,-243,54,5
-4906,289,9075,292,-138,18,5
-5024,272,9134,243,-172,4,5
-4905,-9,9288,65,-169,-26,5
-4847,698,10382,-111,40,45,5
-4847,698,10382,-111,40,45,5
-5062,886,10699,-249,160,-28,5
-4680,1359,10293,-472,280,-125,5
-4433,47,8475,-717,368,-177,5
-5219,-813,6859,-659,280,-165,5
-4989,-714,6429,-309,131,-67,5
-4918,-538,7162,84,-80,-4,5
-5126,83,8373,263,-258,39,5
-5084,454,9177,218,-274,18,5
-4770,315,8953,85,-193,-17,5
-4770,315,8953,85,-193,-17,5
-4784,5,8511,25,-46,-39,5
-4694,-196,8441,15,51,-24,5
-4502,-302,8757,9,67,15,5
-4497,-326,9019,-31,48,64,5
-4559,-385,8963,-83,45,100,5
-4567,-473,8780,-86,61,126,5
-4430,-404,9129,-12,113,157,5
-4240,166,9694,48,219,194,5
-4551,284,9919,21,368,222,5
-4551,284,9919,21,368,222,5
-4316,886,9365,-92,551,230,5
-5196,825,8493,-226,663,193,5
-7702,468,7959,-12,-224,204,5
-5740,-1801,7896,336,-351,-5,5
-4610,836,9850,378,-279,-126,5
-4923,-448,8464,149,-450,-21,5
-5096,-65,9317,152,-387,-53,5
-5081,148,9247,235,-145,-95,5
-5051,181,9064,283,-95,-98,5
-5051,181,9064,283,-95,-97,5
-4846,-65,9195,213,-135,-97,5
-4612,-474,9343,89,-160,-70,5
-4479,-653,9255,-20,-161,2,5
-4572,-437,9122,-58,-152,94,5
-4791,-205,8991,-19,-145,153,5
-4929,102,9007,31,-116,164,5
-4942,319,9085,54,-67,136,5
-5084,372,9123,37,-28,97,5
-5158,179,9622,16,27,43,5
-5158,179,9622,-58,87,34,5
-4761,233,9510,-58,87,34,5
-5066,246,9403,-144,122,27,5
-5211,376,9219,-207,144,-3,5
-4977,720,8974,-293,138,-45,5
-5033,-8,8340,-322,135,-97,5
-4969,-159,7779,-248,93,-97,5
-5140,-398,7539,-70,19,-96,5
-5148,-154,7990,98,-88,-92,5
-5432,-57,8496,170,-166,-97,5
-5432,-57,8496,169,-172,-139,5
-5026,-251,9036,169,-172,-139,5
-4510,-211,9078,123,-100,-135,5
-4463,-181,8927,81,-10,-82,5
-4593,-189,8847,79,40,-30,5
-4604,-163,8804,52,48,11,5
-4723,-175,8666,20,42,40,5
-5115,-35,8567,6,-3,60,5
-5115,-35,8567,6,-3,60,5
-4776,46,8621,-23,-27,81,5
-5203,-242,8415,-22,-43,78,5
-4765,-123,8726,3,-57,80,5
-5029,104,8657,-2,-53,80,5
-4724,147,8679,-31,-83,82,5
-5033,38,8782,-33,-100,64,5
-4819,114,9037,-58,-97,64,5
-5134,-10,8935,-40,-48,36,5
-4918,57,9225,-37,15,26,5
-4918,57,9225,-37,15,26,5
-4577,181,9596,-105,69,40,5
-5022,253,9276,-162,170,33,5
-4649,244,8953,-231,254,44,5
-4731,301,8571,-270,258,75,5
-7215,-1036,5851,7,-301,170,5
-5552,-1850,7331,468,-307,92,5
-4411,315,9690,543,-176,99,5
-4959,22,9037,307,-305,198,5
-5227,308,9117,230,-310,142,5
-5227,308,9117,230,-310,142,5
-5188,768,9342,204,-175,58,5
-5241,835,9089,130,-178,-6,5
-4975,436,9111,14,-208,-80,5
-4704,56,9084,-54,-191,-102,5
-4704,-13,9069,-67,-174,-75,5
-4577,-151,9701,-62,-129,-35,5
-4911,58,9456,-78,-35,-1,5
-4756,83,9420,-87,53,-4,5
-4660,550,9743,-91,147,0,5
-4660,550,9743,-91,147,-35,5
-5355,739,9609,-271,263,-35,5
-5469,369,8669,-446,202,-136,5
-5034,-539,7963,-442,115,-210,5
-4845,-860,7791,-219,87,-233,5
-4712,-577,8067,-15,23,-195,5
-4888,-72,8232,-6,-112,-139,5
-4986,-128,8334,-64,-237,-107,5
-4771,-287,8800,-47,-248,-87,5
-4583,-232,8880,-9,-149,-48,5
-4583,-232,8880,12,-31,-15,5
-4686,-265,8873,12,-31,-15,5
-4711,-372,8761,10,50,6,5
-4713,-399,8602,17,67,34,5
-4716,-418,8626,30,50,58,5
-4733,-184,8599,29,35,69,5
-4721,-196,8650,-4,14,73,5
-4719,-334,8672,-28,0,87,5
-4719,-234,9022,-18,12,100,5
-4710,378,9810,-31,72,87,5
-4710,378,9810,-122,198,39,5
-4602,622,10040,-122,198,39,5
-4857,720,9022,-219,337,-9,5
-6758,-4241,-8298,-100,419,-4,5
-5278,-630,7006,330,-123,-87,5
-4917,-53,9123,624,-138,-88,5
-5207,-227,8163,392,-310,7,5
-5111,125,9361,228,-437,-54,5
-4856,75,9221,188,-269,-102,5
-4740,-198,8910,218,-166,-76,5
-4740,-198,9048,255,-145,-21,5
-4431,-313,9048,255,-145,-21,5
-4541,-586,9123,252,-108,43,5
-4652,-449,9285,208,-89,109,5
-4776,-226,9357,133,-103,145,5
-4771,21,9136,65,-121,150,5
-4828,360,9145,25,-124,139,5
-4939,486,9198,9,-97,105,5
-4913,396,8956,-21,-57,41,5
-4831,156,9103,-56,-43,7,5
-4768,44,8849,-79,-17,-1,5
-4768,44,8849,-79,-17,-1,5
-4776,154,8829,-76,-29,8,5
-4849,240,8930,-71,-45,9,5
-4932,234,9131,-69,-23,-4,5
-4972,342,9105,-87,12,-38,5
-4794,212,9050,-138,21,-73,5
-4607,-141,9282,-174,39,-76,5
-4718,-305,9180,-178,95,-45,5
-4616,99,9113,-183,144,-21,5
-4929,-94,8641,-233,167,-19,5
-4929,-94,8641,-233,167,-19,5
-5115,-380,8170,-199,113,-27,5
-4890,-436,8258,-67,65,-24,5
-4760,-440,8461,39,34,-8,5
-4894,-230,8591,86,-9,7,5
-4943,-138,8626,87,-45,4,5
-4709,-38,8903,67,-75,11,5
-4893,64,9022,32,-65,16,5
-5306,169,8778,-7,-32,-6,5
-4925,4,8750,-28,-3,-61,5
-4925,4,8750,-28,-3,-61,5
-4632,-180,8648,-31,27,-73,5
-4609,-308,8599,-7,23,-49,5
-4594,-275,8678,31,-18,-14,5
-4705,-277,8757,39,-32,20,5
-4771,-192,8807,31,0,44,5
-4863,-80,8653,21,36,45,5
-4820,-154,8605,7,28,35,5
-4837,-253,8634,9,7,34,5
-4833,-279,8348,53,2,48,5
-4833,-279,8348,53,2,48,5
-4719,-308,8506,130,28,41,5
-5050,29,8571,15,0,16,5
-4444,-33,8813,-44,-42,45,5
-5152,-228,8697,-77,-56,50,5
-4725,-49,8890,-72,-45,53,5
-4725,-49,8890,-72,-45,53,5
-4749,32,9132,-66,-7,45,5
-4926,329,9034,-92,31,47,5
-5018,93,8918,-108,46,28,5
-4795,163,9004,-128,53,23,5
-4962,77,9390,-126,109,10,5
-4869,242,9446,-135,217,-7,5
-4670,80,8884,-199,307,18,5
-5118,-196,8348,-246,343,38,5
-5067,-427,7992,-230,307,70,5
-5067,-427,7992,-230,307,70,5
-5094,-611,7940,-164,242,98,5
-4882,-831,8158,-72,190,144,5
-4456,-782,7421,25,177,196,5
-4651,-62,10283,208,-317,291,5
-5351,-559,9212,467,-412,297,5
-4805,1312,9500,310,-340,196,5
-5117,832,9439,-5,-360,112,5
-5458,418,9468,-50,-277,6,5
-5198,295,9067,23,-98,-77,5
-5198,295,9067,23,-75,-98,5
-4901,157,9026,59,-75,-98,5
-4910,0,9004,43,-98,-72,5
-4951,-89,9494,22,-48,-60,5
-5181,138,9567,-27,21,-60,5
-5199,346,9287,-105,71,-91,5
-5187,430,9128,-144,108,-145,5
-5052,206,9507,-163,161,-189,5
-4327,238,9793,-209,269,-203,5
-5182,-370,8200,-343,342,-166,5
-5182,-370,8200,-299,168,-179,5
-5844,-541,7633,-299,168,-179,5
-4819,-903,8029,-155,-7,-175,5
-4649,-860,8367,-26,-88,-108,5
-5108,-671,8297,70,-105,-38,5
-4802,-264,8451,94,-98,3,5
-4973,-291,8361,87,-67,37,5
-4840,-247,8261,83,-45,70,5
-4941,-312,8203,74,-30,94,5
-5229,-320,8184,89,-2,87,5
-5229,-320,8184,86,-5,98,5
-4547,-149,8389,86,-5,98,5
-4878,-157,8456,82,-32,112,5
-5010,-37,8598,88,-56,101,5
-4880,-35,8727,76,-63,82,5
-4814,17,8798,34,-35,68,5
-4912,-9,8836,-5,16,65,5
-4937,71,9087,-29,75,64,5
-4639,372,9818,-45,230,72,5
-4636,564,9044,-143,407,84,5
-5990,-220,11928,-83,-227,91,5
-5990,-220,11928,-83,-227,91,5
-4669,-1697,8411,500,-321,-11,5
-4980,-362,9610,592,-144,46,5
-4855,-531,9144,485,-251,193,5
-5379,206,9584,404,-205,145,5
-5085,113,9339,257,-88,98,5
-5073,83,9013,180,-116,91,5
-4973,156,9120,120,-127,98,5
-5119,336,9194,100,-100,100,5
-5304,693,9214,76,-68,58,5
-5304,693,9214,76,-68,58,5
-5382,528,8975,21,-57,-16,5
-4959,509,8860,-20,-53,-76,5
-4892,160,8696,-42,-60,-82,5
-4828,10,8660,-43,-63,-45,5
-4883,-40,8815,-48,-56,-1,5
-4928,-113,8830,-76,-29,34,5
-4902,-122,8727,-93,-10,67,5
-4955,-88,8638,-86,-8,87,5
-4965,-161,8388,-53,-37,95,5
-4965,-161,8388,-53,-37,95,5
-4955,-114,8511,-10,-93,106,5
-5223,234,8784,14,-113,89,5
-5345,691,8859,7,-124,29,5
-5312,799,8952,-47,-115,-69,5
-4929,502,9202,-129,-85,-166,5
-4794,160,9266,-188,-26,-196,5
-4588,183,9229,-235,46,-191,5
-4819,-329,8220,-270,80,-149,5
-4959,-604,7782,-197,28,-98,5
-4959,-604,7782,-197,28,-98,5
-4973,-424,8011,-25,-61,-54,5
-5318,-382,8329,100,-147,-39,5
-5121,-300,8921,163,-177,-61,5
-4651,-131,9104,157,-132,-62,5
-4671,-173,8861,129,-50,-38,5
-4692,-276,8563,130,-8,-4,5
-4815,-229,8671,163,1,29,5
-4760,7,8738,171,20,51,5
-4849,74,8788,143,29,60,5
-4849,74,8788,143,29,60,5
-4959,88,8829,108,28,57,5
-4882,9,8691,78,14,59,5
-4835,-31,8791,68,-18,72,5
-4679,-68,8898,38,-37,102,5
-4823,-83,8729,7,-25,131,5
-4957,-38,8633,-12,-25,145,5
-4983,10,8616,-25,-37,137,5
-4995,148,8602,-34,-53,117,5
-4908,-189,8646,-8,-9,-56,5
-4839,-86,8648,21,11,-39,5
-4878,-43,8721,15,18,-29,5
-5012,-16,8816,2,22,-32,5
-4967,32,8817,-22,26,-49,5
-4966,41,9066,-53,39,-66,5
-4922,172,9058,-81,86,-95,5
-4902,147,8556,-117,100,-110,5
-4902,147,8556,-117,100,-110,5
-4810,-55,8502,-130,73,-97,5
-4721,-373,8672,-76,78,-52,5
-5258,-271,8142,-47,54,-29,5
-5069,-221,8252,-17,-2,-28,5
-4825,-148,8421,-2,-23,-22,5
-4947,-100,8376,-1,-32,-6,5
-5063,-11,8449,-2,-50,-7,5
-4917,-63,8544,-15,-58,-17,5
-4766,-113,8703,-40,-57,-12,5
-4766,-113,8703,-40,-57,-12,5
-4649,-221,8842,-64,-48,10,5
-4977,-223,8711,-78,-37,40,5
-5077,-153,8782,-46,-28,39,5
-4928,112,8999,-10,17,16,5
-4856,265,9154,1,78,-4,5
-5081,557,9186,-6,159,-21,5
-4829,397,9092,-89,211,-13,5
-5197,-31,8916,-140,247,-26,5
-4768,-191,8545,-185,267,1,5
-4768,-191,8545,-185,267,1,5
-4800,-232,8105,-228,257,70,5
-5111,-419,7818,-215,202,142,5
-5199,-257,7865,-130,144,178,5
-6707,-350,3381,42,-74,180,5
-6252,-952,7660,282,-312,61,5
-4872,830,9235,345,-300,-42,5
-4999,302,9260,140,-355,-70,5
-5018,-240,9156,34,-364,-89,5
-4710,-226,9242,32,-242,-62,5
-4710,-226,9242,32,-242,-62,5
-4960,-433,8951,89,-172,-6,5
-4774,-483,8920,111,-135,42,5
-4887,-494,8827,117,-103,86,5
-4863,-357,8882,118,-106,113,5
-5006,-96,9146,105,-118,123,5
-5388,455,9393,61,-105,71,5
-5267,366,9372,-33,-50,-34,5
-4868,92,9221,-95,14,-98,5
-4956,-43,9042,-106,76,-103,5
-4956,-43,9042,-106,98,-108,5
-4929,245,9164,-114,98,-108,5
-5294,144,8703,-179,94,-127,5
-5255,-230,8539,-196,53,-146,5
-5107,-449,8333,-129,6,-159,5
-5149,-577,8370,27,-15,-153,5
-4369,-364,8543,112,-24,-78,5
-4703,-385,8520,155,-18,14,5
-5024,-244,8556,169,2,62,5
-5002,-156,8480,150,5,73,5
-5002,-156,8480,100,0,70,5
-4828,-78,8475,100,0,70,5
-4788,-23,8401,48,12,77,5
-4954,50,8319,27,-1,80,5
-4945,86,8362,13,-44,64,5
-4871,86,8534,0,-77,49,5
-4911,-92,8667,-9,-79,34,5
-4843,-290,8833,-14,-73,39,5
-4762,-552,9298,10,-21,68,5
-4484,147,9460,0,87,95,5
-4484,147,9460,-99,199,136,5
-4378,183,9862,-99,199,136,5
-4625,412,9333,-209,446,187,5
-6108,-1549,-5294,-318,630,221,5
-5834,-854,7252,52,37,140,5
-5066,157,9541,494,-50,89,5
-5133,-94,8524,398,-132,154,5
-5455,405,9213,344,-229,93,5
-5418,519,9200,269,-128,-14,5
-5144,147,8824,211,-88,-56,5
-5084,212,8834,188,-120,-58,5
-5084,212,8834,188,-120,-58,5
-4794,-55,8935,160,-118,-29,5
-5066,167,8908,125,-95,12,5
-5041,415,8871,62,-106,6,5
-5014,300,8974,4,-124,-19,5
-5182,153,8792,0,-108,-49,5
-4795,74,8694,-15,-116,-36,5
-4884,74,8798,-39,-152,-14,5
-4925,14,9128,-75,-156,2,5
-4875,104,9444,-119,-138,11,5
-4875,104,9444,-119,-138,11,5
-5084,417,10051,-189,-62,-7,5
-5425,428,9729,-263,44,-68,5
-5039,1134,9547,-422,124,-160,5
-5213,-141,8220,-568,145,-216,5
-5084,-1073,7668,-434,81,-207,5
-4682,-1198,7563,-98,39,-145,5
-4831,-434,7903,200,-26,-58,5
-4950,68,8490,283,-116,4,5
-5105,306,8782,208,-138,0,5
-5105,306,8782,208,-138,0,5
-4944,284,8671,118,-114,-31,5
-4827,120,8529,68,-61,-47,5
-4981,149,8496,25,-26,-54,5
-4862,-46,8687,-14,-40,-55,5
-5006,82,8776,-59,-7,21,5
-4855,-44,8672,-81,0,18,5
-4482,-49,8772,-112,-11,53,5
-5154,-302,8682,-113,-3,69,5
-4965,-224,8669,-87,6,62,5
-4578,-159,8939,-76,12,64,5
-4783,-162,9037,-86,32,104,5
-4937,128,9109,-92,50,105,5
-4937,128,9109,-125,88,80,5
-5002,253,9170,-125,88,80,5
-5030,357,9279,-164,166,34,5
-4947,133,9181,-182,261,0,5
-4610,-258,9158,-210,308,28,5
-4847,-250,9030,-200,388,68,5
-4821,-210,8361,-226,455,129,5
-5096,-411,7881,-240,434,177,5
-5118,-557,5869,-219,357,215,5
-5304,-957,10246,19,-230,279,5
-5304,-957,10246,19,-230,279,5
-5289,-740,9487,532,-359,281,5
-4475,859,9340,398,-230,213,5
-5478,258,9048,147,-299,172,5
-5432,356,9278,152,-213,55,5
-4971,174,9146,163,-28,-7,5
-4991,93,8904,135,-34,8,5
-5216,244,8849,78,-111,24,5
-5308,385,9028,10,-125,-10,5
-5267,266,9225,-51,-128,-57,5
-5267,266,9225,-69,-64,-83,5
-5156,108,9607,-69,-64,-83,5
-4980,57,9233,-70,56,-94,5
-5779,-90,8078,-390,199,-147,5
-5438,-482,7818,-355,71,-147,5
-4841,-534,8039,-211,-13,-158,5
-4827,-625,8137,-109,-94,-110,5
-4827,-625,8137,-41,-183,-52,5
-5102,-368,8255,-41,-183,-52,5
-5140,-234,8475,10,-200,-25,5
-5038,-174,8595,69,-132,-14,5
-5003,-93,8727,91,-36,-10,5
-5314,-200,8501,85,66,-28,5
-4657,-209,8343,38,94,-14,5
-4727,-411,8207,12,70,28,5
-4834,-368,8122,27,34,73,5
-4870,-423,8181,56,-14,103,5
-4870,-423,8333,64,-39,124,5
-4861,-360,8333,64,-39,124,5
-4792,-227,8772,51,-32,144,5
-4807,-64,9255,44,25,158,5
-4485,526,9777,29,98,164,5
-4971,918,9249,-39,354,126,5
-7185,748,8924,189,-170,116,5
-5749,-1272,8187,534,-194,-34,5
-5168,693,9300,516,-84,-147,5
-5096,-117,8934,279,-324,-65,5
-5426,102,9491,207,-322,-112,5
-5426,102,9491,207,-322,-112,5
-5021,-50,9369,177,-135,-130,5
-4999,-285,9113,193,-87,-77,5
-4974,-406,9041,186,-70,-16,5
-4874,-503,8944,172,-36,42,5
-4995,-340,8949,153,-35,94,5
-5011,-368,8945,119,-53,135,5
-4996,-203,8837,112,-66,164,5
-5020,70,8650,117,-89,185,5
-5108,372,8752,101,-113,173,5
-5108,372,8752,101,-113,173,5
-5246,674,8816,55,-122,119,5
-5164,667,9085,-26,-133,41,5
-5010,522,9656,-120,-92,-21,5
-4949,305,9469,-197,5,-53,5
-5051,186,9046,-235,61,-59,5
-5101,293,8918,-240,77,-62,5
-4979,664,8949,-272,90,-68,5
-5108,220,8671,-331,104,-71,5
-5046,-133,8292,-333,117,-81,5
-5046,-133,8292,-211,114,-72,5
-5324,-582,7314,-211,114,-72,5
-5410,-264,7491,11,34,-108,5
-5051,13,8036,135,-98,-124,5
-4974,-50,8428,135,-210,-139,5
-4840,-71,8683,121,-253,-133,5
-4795,-142,8872,106,-219,-111,5
-4771,-191,8879,72,-161,-74,5
-4784,-236,8876,24,-107,-32,5
-4795,-350,8827,-20,-76,9,5
-4795,-350,8827,-20,-76,9,5
-4913,-245,8663,-32,-57,40,5
-5655,-227,8252,48,-53,4,5
-4839,184,8660,106,-101,-26,5
-4871,34,8861,124,-108,-39,5
-4759,-110,8785,127,-76,-28,5
-4844,-76,8712,124,-40,-3,5
-4896,148,8614,89,-36,14,5
-5174,222,8617,40,-42,-12,5
-4788,129,8626,-27,-73,-11,5
-4788,129,8626,-27,-73,-11,5
-4934,-187,8585,-48,-69,-8,5
-4882,-244,8688,-3,-43,-1,5
-4900,-33,8705,53,-26,4,5
-4986,104,8723,73,-47,-2,5
-4876,49,8894,65,-72,-14,5
-4845,-51,8872,50,-65,-12,5
-4900,-63,8732,39,-43,0,5
-4680,-181,9044,1,-10,50,5
-4680,-181,9044,1,-10,50,5
-4828,-14,8937,-7,36,57,5
-4878,-41,9096,-32,58,64,5
-4383,50,9248,-99,54,109,5
-4966,-216,9060,-142,74,143,5
-4825,-122,8733,-166,93,182,5
-5036,52,8593,-173,94,183,5
-5117,290,8463,-167,80,153,5
-5302,417,8397,-141,54,84,5
-5154,332,8641,-92,46,3,5
-5154,332,8641,-92,46,3,5
-4868,-125,9047,-27,92,-54,5
-4403,-173,9833,27,222,-43,5
-4231,186,10043,-48,421,34,5
-4630,184,8691,-214,557,153,5
-4163,-2214,-8717,-377,468,164,5
-5821,-1320,7348,-128,-107,140,5
-4675,132,10145,452,-217,130,5
-4638,-174,8697,339,-130,184,5
-5173,143,9136,244,-237,177,5
-5173,143,9136,244,-237,177,5
-5429,362,9208,232,-135,80,5
-5173,70,8770,224,-65,18,5
-4947,263,9273,177,-99,1,5
-5149,110,9248,80,-119,-3,5
-5211,197,9069,22,-103,-34,5
-5096,461,9238,0,-89,-62,5
-5258,544,9300,-15,-47,-103,5
-5028,629,9189,-56,8,-160,5
-4981,494,9125,-145,21,-199,5
-4981,494,9125,-145,21,-199,5
-5052,215,8884,-231,47,-221,5
-4913,-72,8562,-266,51,-206,5
-4773,15,8940,-265,53,-158,5
-5032,-410,8592,-285,87,-120,5
-5197,-726,8133,-240,50,-86,5
-4961,-683,8333,-118,-10,-65,5
-4685,-555,8407,-12,-59,-16,5
-4878,-303,8524,45,-101,34,5
-5016,-199,8621,61,-99,56,5
-5016,-199,8621,63,-45,56,5
-4987,-204,8641,63,-45,56,5
-4890,-155,8616,53,18,63,5
-4907,-166,8293,31,58,76,5
-5052,19,8196,43,43,38,5
-4728,-3,8450,12,-5,35,5
-4949,-66,8450,1,-26,31,5
-4840,-96,8702,9,-19,25,5
-4735,-137,9664,18,43,23,5
-4157,0,10884,-15,193,42,5
-4157,0,10884,-134,581,105,5
-5367,648,8721,-342,768,148,5
-4816,-674,8596,370,-343,138,5
-4816,-674,8596,370,-343,138,5
-5675,154,9111,351,-298,100,5
-5191,38,9236,323,-155,21,5
-5028,16,9012,309,-122,0,5
-5028,16,8903,254,-131,20,5
-4959,-138,8903,254,-131,20,5
-5042,-28,8947,189,-142,42,5
-4981,78,8703,108,-163,47,5
-5123,356,8822,40,-226,35,5
-5066,358,8825,5,-260,-2,5
-5030,150,9329,4,-246,-39,5
-5044,132,9494,-5,-145,-49,5
-5109,193,9268,-37,-55,-58,5
-5022,369,9162,-84,-32,-81,5
-4881,228,9095,-174,-46,-87,5
-4881,228,9095,-174,-46,-87,5
-5030,387,9084,-270,-52,-83,5
-5224,397,8894,-327,-40,-99,5
-5296,-262,7956,-295,-22,-130,5
-5174,-324,7677,-122,-71,-150,5
-5166,-317,8139,109,-131,-175,5
-4989,-114,8414,215,-183,-175,5
-4644,-133,8760,209,-235,-155,5
-4626,-137,9054,161,-203,-122,5
-4807,-116,8874,134,-105,-102,5
-4807,-116,8874,134,-105,-102,5
-4902,-137,8955,123,-23,-90,5
-4780,-55,8762,94,11,-80,5
-4741,-82,8683,69,-8,-64,5
-4747,-161,8723,48,-41,-38,5
-4858,-355,8665,53,-67,-17,5
-4840,-290,8801,82,-66,1,5
-4784,-198,8804,105,-37,18,5
-4791,-252,8730,116,-17,36,5
-4765,-173,8579,128,-11,48,5
-4765,-173,8579,128,-11,48,5
-5265,-153,8255,180,27,8,5
-5027,165,8419,208,12,-41,5
-4822,102,8510,211,-17,-75,5
-4853,129,8598,220,-32,-81,5
-4719,288,8707,222,-47,-78,5
-4662,439,8977,164,-67,-62,5
-4722,362,9180,48,-72,-28,5
-4808,77,9071,-43,-61,-3,5
-4776,52,8788,-75,-34,18,5
-4776,52,8788,-75,-34,18,5
-4835,83,8665,-79,-9,31,5
-4901,66,8762,-59,-5,34,5
-4937,-22,8810,-31,-19,34,5
-4850,-70,8677,-10,-20,28,5
-5017,110,8673,-19,-1,55,5
-4971,125,8764,-23,-4,24,5
-4855,52,8781,-46,-1,0,5
-4737,-81,8956,-73,-10,10,5
-4753,-264,8803,-138,-31,75,5
-4753,-264,8803,-138,-31,75,5
-5075,-284,8675,-133,-20,84,5
-4900,-252,8775,-98,7,85,5
-4409,-86,9244,-105,38,121,5
-4578,-186,9456,-119,128,178,5
-4760,-37,9559,-147,252,218,5
-4692,80,9467,-213,409,240,5
-4992,139,8932,-279,560,249,5
-6967,-276,6764,-43,-116,334,5
-6429,-2221,7034,479,-239,260,5
-6429,-2221,7034,479,-239,260,5
-4911,1018,9420,689,-113,165,5
-5121,527,8848,465,-259,174,5
-5548,825,9086,340,-312,54,5
-5246,757,9427,257,-180,-95,5
-4844,404,9298,200,-133,-128,5
-5278,617,9259,114,-136,-114,5
-5350,541,9293,0,-135,-142,5
-5215,434,9261,-104,-131,-199,5
-5140,-40,9293,-126,-93,-247,5
-5140,-40,9293,-126,-93,-213,5
-4493,-228,9572,-94,-14,-213,5
-4683,-265,9876,-66,100,-139,5
-5038,-104,9755,-92,193,-88,5
-4898,1354,9594,-299,275,-108,5
-5381,362,8602,-504,240,-182,5
-4626,-795,7801,-496,170,-228,5
-5048,-1055,7491,-271,138,-186,5
-5085,-872,7300,-9,51,-116,5
-4925,-555,7758,105,-124,-43,5
-4925,-555,7758,131,-246,-6,5
-5167,-265,8287,131,-246,-6,5
-4977,-186,8549,138,-253,1,5
-4827,-33,8596,136,-218,4,5
-5035,-217,8551,152,-82,-8,5
-4534,-62,8758,102,-4,-3,5
-4499,-199,8868,20,6,35,5
-4811,-193,8658,-39,0,74,5
-5002,-70,8426,-48,-23,69,5
-4951,-58,8416,-35,-41,40,5
-4951,-58,8416,-11,-32,20,5
-4796,-166,8586,-11,-32,20,5
-4709,-204,8624,-7,-13,33,5
-4707,-288,8818,-28,0,72,5
-4541,-116,9147,-53,54,117,5
-4074,-126,9891,-87,229,200,5
-4722,-86,8823,-182,405,299,5
-7511,269,9303,198,-278,325,5
-5112,-1331,8008,613,-258,201,5
-5196,549,9449,589,-135,130,5
-5166,94,8888,366,-368,178,5
-4870,45,9303,235,-146,-42,5
-4839,-104,9351,195,-89,-10,5
-4804,51,9075,133,-58,32,5
-4864,133,9022,71,-91,62,5
-4950,320,9427,18,-116,77,5
-5148,479,9414,-48,-101,68,5
-5148,479,9414,-48,-101,68,5
-5245,909,9343,-114,-76,6,5
-5179,873,9133,-198,-51,-88,5
-5041,403,8871,-272,-65,-160,5
-4692,38,8944,-299,-85,-169,5
-4639,-214,9261,-276,-42,-125,5
-4889,-267,9012,-217,50,-55,5
-4618,137,8673,-160,128,-22,5
-5185,132,8061,-139,142,-8,5
-5123,-173,7926,-49,76,-16,5
-5123,-173,7926,-49,76,-16,5
-4962,-122,8143,53,0,-23,5
-4703,-143,8711,83,-84,-6,5
-4856,55,8836,76,-100,8,5
-4968,130,8720,57,-87,3,5
-4986,343,8757,32,-81,-23,5
-4907,153,8733,-12,-81,-51,5
-4746,-32,8769,-31,-78,-56,5
-4658,-1,8695,-42,-69,-36,5
-5289,-208,8539,0,-33,-61,5
-5289,-208,8539,0,-33,-61,5
-4691,-263,8733,19,-26,-49,5
-4607,-301,8608,53,-19,-32,5
-4560,-308,8677,72,-10,19,5
-4609,-326,8719,85,-9,73,5
-4829,-232,8824,83,-7,114,5
-4986,-52,8863,71,2,120,5
-4872,7,8790,58,11,113,5
-4942,107,8669,56,23,104,5
-5076,290,8633,61,22,78,5
-5076,290,8633,61,22,78,5
-5152,519,8602,47,-23,32,5
-5091,437,8830,4,-59,-18,5
-5004,179,8755,-36,-70,-56,5
-4718,-1,8809,-45,-53,-56,5
-4789,-51,8690,-35,-20,-23,5
-4998,15,8612,-14,-21,3,5
-4951,106,8776,-5,-40,6,5
-4840,-8,8812,-6,-29,2,5
-4920,-63,8758,8,-7,4,5
-4920,-63,8758,8,-7,4,5
-4929,-33,8824,26,4,3,5
-4697,-230,8556,-23,-48,-12,5
-4697,-230,8556,-7,-40,15,5
-4942,117,8530,-7,-40,15,5
-4972,-71,8451,-31,-38,15,5
-4841,-155,8519,-28,-48,11,5
-4742,-239,8523,-12,-56,28,5
-4785,-229,8572,10,-58,54,5
-4805,-71,8494,37,-61,70,5
-4852,70,8565,41,-70,70,5
-4883,99,8638,33,-73,60,5
-4808,171,8855,29,-63,56,5
-4444,190,9127,-23,-42,74,5
-4444,190,9127,-23,-42,74,5
-4792,317,9611,-73,23,81,5
-4833,503,10183,-133,116,70,5
-4687,460,9556,-222,249,51,5
-4518,321,9420,-316,421,57,5
-6809,-3732,-4049,-232,381,138,5
-6168,-2610,6406,165,-86,133,5
-4766,583,9677,568,-199,146,5
-4862,-171,8635,375,-328,219,5
-4991,172,9273,249,-431,180,5
-4991,172,9273,249,-275,84,5
-5248,513,9439,242,-275,84,5
-4795,145,9080,231,-167,48,5
-5009,236,9165,215,-204,48,5
-4987,449,9377,159,-223,35,5
-5279,832,9577,76,-202,-26,5
-5172,1121,9767,-35,-171,-145,5
-4856,739,9524,-142,-133,-252,5
-4366,227,9580,-198,-78,-279,5
-4280,-196,9803,-208,39,-206,5
-4280,-196,9803,-208,39,-206,5
-4482,-289,9780,-183,175,-105,5
-5000,827,9761,-247,280,-49,5
-4986,206,8705,-441,288,-54,5
-5149,-588,7688,-484,174,-88,5
-4748,-1063,7570,-273,76,-74,5
-4624,-838,7981,17,1,-6,5
-4831,-220,8549,131,-84,65,5
-4920,143,8793,109,-124,82,5
-4843,149,8752,72,-91,62,5
-4843,149,8752,72,-91,62,5
-4821,45,8524,51,-11,48,5
-4755,62,8642,34,59,45,5
-4728,-46,8611,-12,80,55,5
-4689,-88,8534,-45,64,64,5
-4733,-76,8525,-47,42,63,5
-4762,-59,8518,-29,28,58,5
-4715,-118,8595,-20,16,58,5
-4463,-28,9196,-27,37,79,5
-4218,-112,10146,-69,141,115,5
-4218,-112,10146,-69,141,115,5
-4118,468,9871,-160,348,172,5
-4420,597,9144,-306,590,248,5
-4882,-3827,-13165,-243,689,228,5
-5964,254,7138,267,37,108,5
-4584,-149,9439,671,-60,34,5
-5356,-57,8559,412,-200,74,5
-4975,72,9576,257,-362,68,5
-5252,283,9250,212,-188,22,5
-5145,344,8914,208,-79,3,5
-5145,344,8914,213,-103,-18,5
-5084,351,8938,213,-103,-18,5
-4740,40,9017,163,-127,-9,5
-4821,-101,9060,102,-133,37,5
-4971,-34,8977,65,-113,50,5
-4857,28,8928,51,-116,72,5
-4947,250,8825,65,-125,82,5
-4955,331,8857,69,-139,71,5
-4874,263,8958,45,-141,59,5
-4624,315,9728,-16,-113,57,5
-4624,315,9728,-125,-23,50,5
-4947,482,10021,-125,-23,50,5
-5222,673,9420,-244,32,4,5
-5237,1048,9203,-365,40,-76,5
-5151,830,8756,-476,4,-167,5
-5028,38,8364,-465,-42,-224,5
-4856,-401,8051,-350,-32,-222,5
-4727,-591,7592,-146,-14,-175,5
-4944,-317,7951,53,-44,-113,5
-4992,-200,8392,125,-86,-67,5
-4992,-200,8392,182,-116,-74,5
-5174,-367,8370,182,-116,-74,5
-4303,-173,8837,197,-128,-48,5
-4441,-64,9095,189,-88,1,5
-4776,-35,9105,170,-43,32,5
-4827,179,9097,144,-28,36,5
-4894,165,8987,80,-16,6,5
-4740,21,8778,32,-11,-6,5
-4676,-66,8495,17,-17,5,5
-4807,-57,8434,18,-48,27,5
-4807,-57,8495,17,-84,31,5
-4870,82,8495,17,-84,31,5
-4790,8,8589,3,-93,27,5
-4664,-4,8693,0,-80,32,5
-4716,116,8758,10,-62,47,5
-4985,331,8804,21,-50,48,5
-5018,344,8928,6,-52,20,5
-4919,208,8919,-15,-49,-12,5
-5154,-63,8541,19,-7,-39,5
-4710,96,8555,96,25,-66,5
-4575,-71,8726,100,6,-28,5
-4575,-71,8726,100,6,-28,5
-4741,-100,8744,3,-21,10,5
-4734,-117,8687,-1,-15,21,5
-4734,-117,8687,-1,-15,21,5
-4716,-122,8609,-7,-27,34,5
-4695,-187,8651,-6,-38,53,5
-4681,-118,8727,4,-32,75,5
-4736,-22,8772,8,-25,82,5
-4756,28,8720,-2,-30,89,5
-4421,-52,8868,-14,-43,100,5
-4850,348,8930,-14,-25,125,5
-4778,368,9332,-39,15,111,5
-4817,-58,9743,-63,99,94,5
-4817,-58,9743,-102,248,107,5
-4213,333,9903,-102,248,107,5
-4566,437,9213,-247,417,156,5
-4827,20,8304,-367,434,186,5
-4683,32,12634,-199,-313,267,5
-5723,-1768,8815,447,-441,238,5
-4260,927,9700,410,-275,150,5
-4955,125,9133,149,-426,176,5
-5412,142,9500,142,-376,102,5
-4902,485,9497,193,-163,13,5
-4902,485,9497,193,-130,-4,5
-4910,293,9266,193,-130,-4,5
-4760,62,9379,125,-158,-7,5
-4578,-99,9560,71,-89,8,5
-4664,163,9393,39,-32,53,5
-4865,470,9498,-11,-26,53,5
-5087,783,9416,-76,-32,3,5
-4978,715,9196,-142,-34,-78,5
-4896,528,9440,-205,3,-146,5
-4414,597,9822,-293,89,-177,5
-4329,-841,8344,-69,33,-7,5
-4329,-841,8344,-69,33,-7,5
-4633,-384,8578,89,10,89,5
-4949,94,8731,136,-2,121,5
-5492,125,8508,167,21,70,5
-4639,244,8743,145,29,6,5
-4627,217,8671,54,47,6,5
-4610,15,8461,-18,41,37,5
-4610,15,8461,-18,41,37,5
-4865,-82,8415,-30,20,52,5
-4731,-20,8467,-12,4,56,5
-4748,-34,8623,10,7,55,5
-4738,99,8580,21,7,51,5
-4750,240,8654,5,-5,39,5
-4699,129,8913,-21,-4,18,5
-4503,-130,9633,-47,59,16,5
-3946,391,10558,-102,210,83,5
-4338,490,9256,-312,426,193,5
-4338,490,9256,-312,426,193,5
-4421,-2888,-10201,-473,463,200,5
-5511,-1026,7243,-1,-182,108,5
-4058,-774,9200,587,-215,127,5
-5150,-262,8569,532,-204,221,5
-4989,71,9427,479,-322,213,5
-5130,378,9590,425,-185,116,5
-4858,329,9318,350,-85,60,5
-4826,272,9229,289,-92,54,5
-4910,230,9110,230,-95,62,5
-4910,230,9110,230,-95,62,5
-5036,628,9158,180,-64,29,5
-4884,788,9165,85,-76,-25,5
-4899,705,9217,-15,-127,-70,5
-4565,320,9576,-69,-117,-87,5
-4599,160,9583,-85,-27,-43,5
-4620,123,9544,-115,68,18,5
-4924,284,9281,-143,142,42,5
-5221,721,8975,-223,135,29,5
-5093,887,9178,-350,82,-20,5
-5093,887,9178,-350,82,-20,5
-4973,288,9099,-423,62,-97,5
-5108,-66,8403,-423,112,-163,5
-4975,-434,7664,-282,98,-186,5
-4803,-346,7890,-74,20,-165,5
-4685,-171,8140,32,-77,-93,5
-4967,-100,8384,85,-164,-33,5
-5113,2,8689,163,-167,-42,5
-4764,210,9093,182,-111,-51,5
-4962,190,9203,154,-61,-65,5
-4962,190,9203,154,-61,-65,5
-4681,211,8970,98,-30,-91,5
-4587,5,9007,26,-12,-74,5
-4667,-149,9072,-15,26,-34,5
-4764,-204,8800,-25,70,-4,5
-4709,-65,8587,-29,72,24,5
-4727,-56,8310,-26,48,34,5
-5109,-22,8103,34,16,6,5
-4882,-43,8271,106,-37,-23,5
-4604,-51,8578,134,-69,-27,5
-4604,-51,8578,134,-77,-12,5
-4625,-167,8572,129,-77,-12,5
-4671,-138,8626,107,-71,2,5
-4601,-99,8650,72,-49,25,5
-4704,40,8757,36,-25,45,5
-4768,69,8703,6,-4,63,5
-5102,51,8855,34,22,42,5
-4645,211,9266,53,43,44,5
-4890,107,8824,42,64,47,5
-5121,275,8715,58,37,29,5
-5121,275,8715,60,9,0,5
-4962,339,8774,60,9,0,5
-4742,147,8712,58,3,-13,5
-5431,161,8360,177,61,-67,5
-4887,66,8775,8,-32,17,5
-4880,27,8794,1,-18,9,5
-4825,20,8819,-5,-4,10,5
-4767,-45,8762,-14,-3,25,5
-4767,-45,8762,-14,-3,25,5
-4744,-96,8762,-14,-10,46,5
-4868,-5,8842,1,-15,70,5
-4858,154,8927,0,-17,72,5
-4590,385,9019,-45,-24,64,5
-5015,311,8985,-100,-9,61,5
-4686,104,9139,-119,26,51,5
-4893,222,8904,-151,65,53,5
-4878,20,9314,-148,113,53,5
-4325,221,9755,-149,232,61,5
-4325,221,9755,-149,232,61,5
-4421,63,9335,-216,404,109,5
-4870,-220,8664,-229,519,171,5
-4954,-197,8085,-161,544,207,5
-5371,-385,7901,-102,489,207,5
-5895,-382,8898,116,-58,230,5
-5471,-878,8656,405,-256,202,5
-4405,515,9014,298,-221,171,5
-5120,372,8964,101,-276,187,5
-5406,552,9125,116,-226,119,5
-5406,552,9125,116,-226,119,5
-5197,756,9065,137,-74,29,5
-5194,772,8976,84,-76,-43,5
-5002,344,8874,-28,-135,-92,5
-4853,1,8870,-87,-153,-95,5
-4881,-49,9238,-73,-126,-64,5
-5041,117,9622,-40,-31,-39,5
-5120,180,9457,-46,91,-47,5
-5160,287,9339,-91,158,-77,5
-4687,217,9273,-153,202,-107,5
-4687,217,9273,-153,202,-107,5
-5011,-392,8457,-243,216,-84,5
-5430,-606,7787,-225,94,-34,5
-5314,-602,7860,-98,-70,-17,5
-5364,-539,8008,76,-184,-12,5
-4766,-69,8790,167,-241,-17,5
-4786,151,8729,128,-219,-6,5
-4980,200,8526,69,-192,6,5
-4974,128,8517,60,-164,19,5
-4721,116,8529,68,-118,45,5
-4721,116,8529,68,-118,45,5
-4765,119,8694,88,-52,81,5
-4743,435,8755,94,8,91,5
-4934,521,8670,45,9,81,5
-5042,361,8444,-4,-23,42,5
-4901,102,8478,-15,-44,12,5
-4741,-33,8601,-1,-35,14,5
-4689,-65,8609,6,-10,42,5
-4532,-314,9061,12,30,88,5
-3912,-159,10269,31,179,166,5
-3912,-159,10269,31,179,284,5
-3863,527,9783,-90,379,284,5
-5059,613,8871,-194,613,315,5
-7530,321,9416,75,-86,330,5
-5264,-991,7860,579,-187,150,5
-5326,757,9310,583,-113,56,5
-5100,160,8756,389,-364,111,5
-5432,709,9455,320,-348,10,5
-5126,522,9220,241,-184,-65,5
-4969,339,8985,227,-173,-81,5
-4969,339,8985,193,-171,-63,5
-4868,259,9158,193,-171,-63,5
-4744,-3,9233,153,-149,-23,5
-4721,-87,9230,108,-117,24,5
-4844,-101,8989,67,-95,79,5
-4795,65,8977,73,-70,111,5
-4966,300,8993,75,-91,152,5
-5169,799,9050,53,-119,144,5
-5289,1280,9109,-21,-130,59,5
-5185,1228,9034,-142,-154,-59,5
-5185,1228,9034,-243,-167,-152,5
-4956,780,8922,-243,-167,-152,5
-4551,342,9196,-265,-130,-167,5
-4547,49,9633,-218,-2,-105,5
-4900,171,9433,-167,148,-41,5
-5096,262,9071,-162,220,-22,5
-4936,1077,9077,-230,240,-39,5
-5280,344,8012,-330,206,-72,5
-5100,-401,7667,-266,70,-86,5
-4846,-465,8047,-52,0,-69,5
-5066,-78,8342,109,-29,-36,5
-5066,-78,8342,109,-29,-36,5
-5200,364,8452,117,-98,-52,5
-5090,502,8427,41,-165,-97,5
-5117,262,8286,6,-178,-136,5
-5011,114,8427,62,-132,-178,5
-4508,34,8831,84,-82,-152,5
-4548,-25,8812,75,-45,-113,5
-4609,-92,8947,62,-23,-61,5
-4943,162,8530,-4,8,22,5
-4949,166,8435,-17,-34,9,5
-5057,137,8377,-7,-70,-8,5
-4852,-27,8496,21,-86,-23,5
-4827,41,8614,54,-81,-20,5
-4785,58,8751,73,-69,-9,5
-4827,191,8796,73,-53,0,5
-4874,199,8884,50,-48,-1,5
-4874,199,8884,50,-48,-1,5
-4894,275,9099,21,-24,-1,5
-4783,71,9014,-2,17,8,5
-4791,-27,8654,-121,25,-56,5
-4782,16,8654,-40,24,-12,5
-4773,86,8767,7,11,20,5
-4840,128,8767,19,6,40,5
-4956,178,8754,17,-2,41,5
-4956,178,8754,17,-2,41,5
-4975,271,8843,14,0,23,5
-4969,233,8858,-11,16,-3,5
-4905,124,9044,-44,25,-20,5
-4718,52,8873,-70,49,-15,5
-4737,125,8689,-76,54,6,5
-4947,235,8713,-63,52,12,5
-4859,320,8729,-54,42,-3,5
-4831,242,8910,-81,39,-14,5
-5020,306,8699,-116,54,-15,5
-5020,306,8699,-116,50,-30,5
-4991,89,8356,-130,50,-30,5
-4797,87,8210,-100,29,-34,5
-4748,-108,8128,-48,5,-16,5
-4713,-141,8409,16,-28,12,5
-4884,83,8536,44,-34,36,5
-5078,47,8606,26,-45,17,5
-4843,82,8781,10,-51,-8,5
-4783,-15,8816,-6,-39,-13,5
-4747,-72,8813,-25,-32,1,5
-4747,-72,8813,-56,-34,23,5
-4688,31,9042,-56,-34,23,5
-4424,-139,9134,-127,-23,79,5
-5102,26,8828,-149,24,124,5
-5125,-29,8445,-133,52,116,5
-4883,183,8617,-94,53,94,5
-4876,151,8662,-72,65,94,5
-5020,126,8572,-51,70,90,5
-4596,390,8700,-81,65,102,5
-5286,-77,8642,-80,93,102,5
-5286,-77,8632,-43,128,87,5
-4984,-27,8632,-43,128,87,5
-4747,-71,8995,-10,164,96,5
-4441,174,9497,-6,262,120,5
-3865,516,9652,-97,382,206,5
-4636,390,9387,-199,492,258,5
-4596,-312,3927,-288,589,280,5
-5044,131,8994,-54,-32,296,5
-5668,-276,9379,577,-192,231,5
-4583,715,8831,418,-142,148,5
-4883,295,9321,187,-320,166,5
-4883,295,9321,187,-320,166,5
-5308,351,9256,172,-218,130,5
-5108,396,8855,197,-39,102,5
-5060,431,8837,215,-50,98,5
-5088,228,8821,163,-114,110,5
-5023,108,8884,98,-146,124,5
-5016,309,9415,50,-161,138,5
-5169,738,9957,7,-95,114,5
-5436,1207,9561,-65,-2,42,5
-5290,1201,9005,-140,16,-81,5
-5290,1201,9005,-140,16,-81,5
-5199,918,8900,-210,-7,-192,5
-5008,501,9299,-274,-21,-232,5
-5176,410,9396,-350,0,-230,5
-4503,386,9329,-455,77,-226,5
-5213,-200,7987,-518,165,-185,5
-5302,-543,7055,-383,130,-135,5
-4662,-715,7103,-84,14,-53,5
-4912,-272,7837,169,-105,42,5
-5326,81,8617,248,-189,68,5
-5326,81,8617,248,-189,68,5
-5191,349,8944,210,-193,17,5
-4992,372,8912,105,-142,-44,5
-4828,223,8821,7,-76,-73,5
-4750,-70,8624,-48,-31,-61,5
-4762,-275,8439,-60,-11,-18,5
-4813,-190,8447,-43,2,23,5
-4901,-41,8555,-33,18,42,5
-4895,46,8542,-44,13,43,5
-4840,31,8522,-49,5,37,5
-4840,31,8522,-49,5,37,5
-4789,75,8886,-28,35,31,5
-4593,179,9497,-18,138,36,5
-4220,390,9911,-76,281,91,5
-4394,586,8672,-226,504,153,5
-8275,-3232,-15023,-277,362,174,5
-5318,-859,6684,158,-255,-6,5
-4577,-167,9250,603,-356,-29,5
-4978,-351,8484,456,-384,100,5
-5312,128,9495,357,-453,96,5
-5312,128,9495,357,-453,96,5
-5298,378,9510,303,-279,31,5
-4984,246,9214,254,-177,17,5
-5000,281,9104,226,-202,30,5
-5036,235,9201,185,-205,32,5
-4719,137,9097,118,-169,38,5
-4899,319,9067,62,-169,69,5
-5103,661,9006,23,-183,73,5
-5204,981,8908,-9,-222,28,5
-5212,1003,9126,-57,-248,-57,5
-5212,1003,9126,-57,-248,-135,5
-4914,766,9698,-104,-174,-135,5
-4819,522,9647,-167,-44,-156,5
-4759,276,9559,-227,31,-142,5
-5414,433,9254,-276,60,-120,5
-4892,527,9389,-337,77,-138,5
-4872,326,9090,-414,115,-160,5
-5155,-460,7969,-371,138,-172,5
-4767,151,9040,-64,88,-45,5
-4662,37,8831,-87,96,-35,5
-4650,-56,8664,-87,92,-9,5
-4725,10,8483,-73,75,15,5
-4813,126,8458,-49,49,20,5
-4813,126,8458,-49,49,20,5
-4856,224,8505,-34,28,5,5
-4868,215,8553,-39,14,-20,5
-4753,228,8547,-49,0,-39,5
-4798,107,8569,-59,0,-43,5
-4703,41,8685,-51,4,-38,5
-4673,100,8629,-53,20,-28,5
-4753,50,8484,-67,23,-28,5
-4716,-21,8483,-62,5,-27,5
-4700,11,8597,-45,-3,-23,5
-4700,11,8597,-45,-3,-23,5
-4583,0,8537,-50,-13,-7,5
-4912,5,8542,-43,-21,3,5
-4934,22,8605,-15,-31,-13,5
-4719,76,8797,-1,-48,-22,5
-4774,-1,8891,-6,-28,-25,5
-4750,-87,8782,-2,-6,-20,5
-4701,-81,8809,-3,-3,0,5
-4680,-236,8651,-6,-7,17,5
-4704,-75,8577,1,0,54,5
-4704,-75,8577,1,0,54,5
-4786,-193,8531,-6,2,83,5
-4673,155,8711,-1,-9,95,5
-4607,673,9121,-61,-24,119,5
-4945,817,9361,-98,21,75,5
-4798,715,9985,-130,99,18,5
-4548,323,10162,-147,288,-12,5
-4510,350,9998,-183,561,17,5
-4546,586,9450,-257,760,48,5
-5894,-240,7576,-219,98,169,5
-5894,-240,7576,293,-320,199,5
-7386,-3677,7530,293,-320,199,5
-3798,897,9763,414,-233,141,5
-4664,-623,8365,233,-332,269,5
-5344,-455,8575,229,-383,296,5
-5077,-62,8937,309,-202,235,5
-4986,9,8634,363,-179,211,5
-4670,141,8889,306,-291,216,5
-4706,187,9321,212,-371,230,5
-5077,282,9553,83,-332,227,5
-5077,282,9553,-12,-284,178,5
-5369,597,9652,-12,-284,178,5
-5155,470,9510,-27,-210,71,5
-4773,582,9306,-23,-184,29,5
-4699,800,9346,-21,-143,5,5
-4740,870,9724,-51,-73,-32,5
-4264,1171,10547,-161,40,-64,5
-4511,748,10210,-367,196,-88,5
-4832,129,9022,-510,277,-81,5
-5371,80,7895,-510,273,-69,5
-5371,80,7607,-351,192,-38,5
-5084,-375,7607,-351,192,-38,5
-4947,-210,7834,-110,77,-13,5
-4874,94,8244,10,-2,13,5
-5020,203,8407,51,-51,10,5
-5099,199,8548,75,-58,-26,5
-4861,239,8633,67,-29,-55,5
-4727,136,8700,26,6,-60,5
-4705,1,8630,-28,32,-42,5
-4706,-181,8621,-61,34,-17,5
-4758,-278,8708,-45,34,6,5
-4758,-278,8708,-45,34,6,5
-4728,-93,8778,-20,41,18,5
-4679,-21,8885,-8,61,28,5
-4317,4,9735,31,150,55,5
-4182,269,9860,8,279,105,5
-3848,811,9774,-113,533,180,5
-4925,-594,289,-256,682,192,5
-5739,556,8380,41,-2,84,5
-4687,-282,8653,344,-210,29,5
-5265,-192,8360,137,-309,22,5
-5265,-192,8360,137,-309,22,5
-5054,-4,9074,45,-481,28,5
-5172,33,9054,113,-318,-15,5
-4917,17,8883,177,-142,-37,5
-4821,167,9122,227,-119,-29,5
-4765,75,9231,191,-109,-9,5
-4776,169,9387,100,-100,2,5
-4944,184,9329,8,-78,4,5
-4942,240,9171,-20,-45,2,5
-4941,392,8935,12,-21,3,5
-4941,392,8935,12,-21,3,5
-5168,423,8889,24,-18,-9,5
-5094,446,8790,-5,-33,-29,5
-5164,445,8729,-51,-61,-61,5
-5222,334,8691,-94,-91,-92,5
-4916,77,8639,-91,-97,-112,5
-4904,21,8780,-56,-78,-105,5
-5124,-33,9071,20,-15,-109,5
-4649,62,8963,28,14,-87,5
-5115,314,8839,-6,-19,-78,5
-5115,314,8839,-6,-19,-78,5
-5072,386,8962,-68,-59,-120,5
-4642,137,9376,-115,-59,-145,5
-4409,-166,9151,-166,31,-124,5
-5057,-186,8327,-148,91,-87,5
-5193,96,8203,-39,54,-86,5
-5087,147,8215,42,-28,-109,5
-5155,49,8422,155,-86,-193,5
-4728,-17,8702,-29,-18,-11,5
-4625,-80,8732,-23,-7,4,5
-4625,-80,8732,-23,-7,4,5
-4693,-145,8702,-31,2,21,5
-4010,-37,8909,-47,21,69,5
-4851,-208,8861,-97,25,132,5
-4771,92,8807,-100,26,140,5
-4587,202,8967,-111,44,144,5
-4676,209,9054,-146,86,154,5
-4851,260,8968,-171,130,156,5
-4820,284,9017,-188,164,152,5
-4865,211,8934,-207,219,145,5
-4865,211,8934,-207,219,142,5
-4895,83,9034,-207,287,142,5
-4808,29,8947,-193,385,142,5
-4843,-3,8738,-181,444,161,5
-6019,-2415,-530,-33,423,196,5
-5236,-309,7679,236,26,180,5
-4670,331,9736,387,-32,177,5
-5213,293,8957,235,-138,210,5
-5084,211,9054,157,-171,155,5
-5081,509,9305,191,-34,91,5
-5081,509,9305,197,29,67,5
-5191,413,8939,156,-14,39,5
-5102,443,8902,156,-14,39,5
-5087,362,8974,96,-42,26,5
-5079,525,8825,39,-50,15,5
-5083,531,8973,0,-70,-7,5
-5230,727,9364,-21,-47,-46,5
-5079,763,9265,-80,0,-97,5
-5340,759,9098,-142,24,-153,5
-5131,696,9266,-171,62,-230,5
-4618,636,9238,-251,94,-246,5
-4618,636,9238,-251,94,-246,5
-5114,-151,8624,-313,99,-216,5
-5062,-789,7600,-228,59,-175,5
-5052,-885,7493,-18,-19,-125,5
-4914,-715,7883,170,-98,-81,5
-4822,-102,8452,226,-159,-47,5
-4783,39,8781,166,-191,-20,5
-4798,55,8833,100,-166,-9,5
-4816,-53,8737,76,-103,8,5
-4816,-53,8737,65,-40,31,5
-4664,128,8737,65,-40,31,5
-4685,151,8788,18,-7,54,5
-4998,169,8605,-23,-8,52,5
-5002,185,8506,-32,-32,30,5
-4963,178,8642,-28,-37,11,5
-4925,187,8682,-32,-18,5,5
-4861,44,8635,-44,-4,12,5
-4825,33,8796,-44,17,24,5
-4790,254,9079,-46,67,23,5
-4590,467,9205,-103,145,28,5
-4590,467,9205,-103,145,28,5
-4382,580,9462,-173,291,68,5
-8118,-480,2300,-217,372,127,5
-5703,-875,7406,188,-157,-28,5
-5045,124,9337,425,-174,-97,5
-4977,-238,8837,344,-229,-9,5
-5064,178,9391,311,-235,-25,5
-5063,181,9282,230,-114,-55,5
-4774,-26,9034,179,-110,-31,5
-4861,-148,9007,136,-124,18,5
-4861,-148,9007,112,-102,77,5
-4587,-111,9241,112,-102,77,5
-4890,78,9261,89,-43,111,5
-5032,367,9119,53,-27,120,5
-5067,513,8941,26,-27,91,5
-5087,589,8657,9,-32,47,5
-4923,452,8663,-4,-47,14,5
-4966,329,8745,-20,-50,0,5
-4855,168,8744,-44,-45,4,5
-4831,138,8673,-64,-37,25,5
-4831,138,8673,-64,-37,25,5
-4925,99,8541,-73,-42,43,5
-4901,75,8615,-55,-64,61,5
-4965,117,8719,-25,-83,71,5
-4992,217,8764,-3,-96,62,5
-5078,439,8851,-4,-105,22,5
-4922,553,9290,-12,-70,-24,5
-5008,644,9092,-45,-11,-69,5
-5765,1103,8930,-102,20,-142,5
-5018,775,8717,-180,-5,-248,5
-5018,775,8717,-180,-5,-248,5
-4534,-238,8328,-216,-61,-269,5
-4826,-489,7988,-98,-79,-229,5
-4832,-370,8021,81,-106,-168,5
-4825,-13,8530,174,-166,-125,5
-4738,135,9117,137,-182,-99,5
-4633,88,9121,59,-156,-73,5
-4681,-120,9105,25,-95,-47,5
-4718,-223,8925,25,-18,-15,5
-4733,-116,8987,23,18,17,5
-4733,-116,8987,23,18,17,5
-4827,-49,9012,6,22,37,5
-4768,-17,8890,9,28,43,5
-4912,26,8404,37,22,41,5
-5266,139,8461,122,15,-16,5
-4798,256,8456,146,-18,-47,5
-4699,181,8618,138,-51,-49,5
-4736,181,8621,114,-62,-32,5
-4606,96,8748,80,-61,-3,5
-4667,125,8897,47,-39,26,5
-4736,87,8745,19,-4,47,5
-4930,-199,8475,-62,29,28,5
-4930,-199,8475,-62,29,28,5
-4846,-78,8554,-39,9,34,5
-4808,57,8782,-53,-1,36,5
-4394,-252,9011,-113,1,94,5
-5004,-183,8793,-109,48,123,5
-4816,-228,8895,-78,109,131,5
-4700,174,8998,-67,191,127,5
-4851,256,8790,-103,251,124,5
-5100,273,8539,-131,243,102,5
-5105,248,8565,-149,207,61,5
-5105,248,8565,-149,207,50,5
-4877,-401,2471,-167,40,50,5
-5741,-588,8005,-12,-199,9,5
-4868,11,9335,223,-202,-13,5
-4566,-86,9213,162,-195,26,5
-5027,-271,9019,105,-180,60,5
-4950,-61,9172,143,-73,58,5
-4868,-144,8889,160,-42,87,5
-5005,-13,8947,147,-50,105,5
-5072,175,8801,120,-43,92,5
-5072,175,8801,89,-72,51,5
-5075,370,8983,89,-72,51,5
-5173,702,9585,33,-72,-12,5
-5228,546,9530,-42,-3,-95,5
-5123,362,9109,-97,47,-166,5
-4956,325,8866,-124,79,-200,5
-5083,185,8816,-136,87,-221,5
-4535,-203,9091,-193,56,-193,5
-4646,-437,9187,-227,67,-119,5
-5359,-385,8249,-223,114,-73,5
-5359,-385,8249,-145,52,-56,5
-5109,-406,7860,-145,52,-56,5
-4760,-340,8178,-47,-30,-37,5
-4820,-470,8368,16,-89,-14,5
-4929,-396,8312,73,-108,6,5
-5130,-314,8366,162,-77,-34,5
-4615,-241,8647,173,-44,-32,5
-4660,-217,8695,122,-22,-9,5
-4686,-141,8559,45,-37,33,5
-4906,-92,8528,-10,-56,50,5
-4906,-92,8623,-33,-45,53,5
-4916,-157,8623,-33,-45,53,5
-4886,-88,8670,-31,-21,53,5
-4918,9,8641,-23,-10,51,5
-4937,-88,8566,-14,-19,47,5
-4868,-83,8751,-5,-26,40,5
-4704,-122,9208,-2,21,44,5
-4682,8,9698,-18,130,58,5
-4180,409,10207,-122,254,90,5
-4460,370,9400,-305,458,139,5
-5154,-2565,-3604,-368,453,154,5
-5154,-2565,-3604,-368,453,154,5
-5966,-284,7586,112,-58,53,5
-4518,-177,9278,572,-76,9,5
-5108,-252,8349,447,-172,94,5
-5107,149,9052,320,-300,102,5
-5455,299,8992,263,-194,30,5
-5089,154,8782,213,-161,-9,5
-4871,124,8902,204,-166,-9,5
-4809,-64,8919,181,-138,19,5
-4839,72,9101,151,-120,44,5
-4839,72,9101,151,-120,44,5
-4906,208,9177,84,-131,52,5
-4929,254,9109,23,-141,43,5
-5002,260,8971,4,-129,17,5
-4837,122,8859,17,-70,8,5
-5263,575,9107,-98,-97,21,5
-5263,575,9107,-98,-97,21,5
-5118,636,9069,-139,-78,-63,5
-4831,291,9261,-174,-42,-126,5
-4774,-11,9296,-161,50,-129,5
-4796,59,9221,-217,105,-84,5
-5062,-203,8392,-274,73,-50,5
-5117,-587,8293,-222,-3,-42,5
-4722,-480,8514,-72,-43,-23,5
-4717,-112,8699,27,-65,15,5
-5414,15,8392,88,-61,3,5
-5414,15,8392,88,-61,3,5
-4887,251,8380,87,-70,-28,5
-4754,19,8573,51,-64,-34,5
-4900,-41,8449,26,-47,-25,5
-4935,23,8319,10,-72,-22,5
-4831,-105,8449,-2,-102,-27,5
-4839,-130,8672,11,-109,-28,5
-4984,-10,8858,26,-94,-35,5
-4901,-195,8796,32,-117,-48,5
-4604,-285,9083,56,-131,-38,5
-4604,-285,9083,56,-131,-38,5
-5231,-642,8719,152,-64,-45,5
-4530,-133,8883,205,-2,-16,5
-4593,-58,8822,163,37,27,5
-4657,23,8651,98,17,50,5
-4784,16,8726,59,-42,78,5
-4932,-23,8660,46,-56,77,5
-4875,-15,8675,43,-29,64,5
-4801,17,8596,33,-3,57,5
-4804,139,8557,40,-29,58,5
-4804,139,8557,40,-81,53,5
-4998,203,8797,49,-81,53,5
-4975,177,9044,45,-76,37,5
-4822,83,9089,35,-36,19,5
-4914,214,8816,9,-10,6,5
-4694,-99,9060,-8,-21,13,5
-4686,-277,8672,-10,78,23,5
-4855,-8,8604,-2,78,46,5
-4919,104,8660,-29,72,28,5
-5015,101,8852,-47,70,-16,5
-4803,77,8754,-67,86,-51,5
-4835,-4,8599,-91,68,-59,5
-4863,-19,8781,-84,42,-61,5
-4863,-19,8781,-84,42,-61,5
-4868,-32,8898,-86,54,-54,5
-4614,-263,8737,-109,63,-42,5
-4953,-163,8561,-111,69,-6,5
-4919,-434,8238,-76,68,20,5
-4928,-287,8224,-22,41,43,5
-4993,-169,8373,-3,15,57,5
-5045,-50,8523,0,6,47,5
-4986,-167,8468,-11,9,25,5
-4737,-163,8584,-9,4,18,5
-4737,-163,8584,-9,4,18,5
-4743,-143,8720,-15,21,28,5
-4511,-129,8912,-54,33,50,5
-4725,25,9020,-84,65,105,5
-5157,-84,8799,-136,92,118,5
-5002,-56,8675,-155,92,107,5
-4954,-161,8676,-163,101,107,5
-4834,-401,8726,-163,130,127,5
-4741,-649,9360,-138,202,174,5
-4447,-309,9535,-120,379,229,5
-4447,-309,9535,-120,532,277,5
-4618,84,9104,-156,532,277,5
-5091,271,8194,-190,616,292,5
-5282,-1071,230,-151,520,264,5
-6465,295,7518,131,-102,183,5
-5149,113,8971,472,-305,54,5
-4792,128,8486,321,-318,27,5
-5235,56,8962,209,-391,33,5
-5076,186,9037,198,-282,-8,5
-5164,-19,8858,196,-207,0,5
-5164,-19,8858,200,-211,4,5
-5021,-47,8951,200,-211,4,5
-5018,-137,8912,152,-209,34,5
-4819,-300,9396,87,-197,64,5
-4938,-251,9690,25,-152,105,5
-5027,-43,9888,-32,-63,128,5
-5339,561,9501,-75,21,102,5
-5583,1110,9193,-110,48,-14,5
-5248,823,9408,-192,59,-160,5
-4874,342,9428,-293,87,-233,5
-4874,342,9428,-427,152,-176,5
-4602,-549,8781,-427,152,-176,5
-5773,-691,7514,-355,115,-117,5
-5822,-680,7018,-86,-9,-86,5
-4947,-410,8112,180,-169,-75,5
-4749,20,9104,252,-207,-30,5
-5046,20,9013,196,-153,0,5
-5056,23,8946,142,-97,-3,5
-4876,96,8691,92,14,-11,5
-4789,105,8544,20,49,-1,5
-4977,105,8504,-50,31,-1,5
-4977,80,8504,-50,31,-1,5
-4973,-28,8463,-88,10,-18,5
-4925,-45,8417,-95,1,-26,5
-4913,-77,8403,-76,-3,-27,5
-4910,-165,8257,-40,-12,-19,5
-4892,-276,8183,-10,-28,-8,5
-4853,-334,8438,1,-36,10,5
-4782,-218,8879,5,-4,37,5
-4833,209,9147,-35,83,39,5
-4619,224,9250,-104,190,30,5
-4619,224,9250,-104,190,30,5
-4735,585,8867,-152,357,39,5
-6836,120,8073,-153,-156,31,5
-5630,-1893,7680,396,-354,-113,5
-4779,-198,9549,561,-213,-133,5
-4754,-616,8983,477,-285,16,5
-5448,126,9482,411,-287,3,5
-5130,59,9332,275,-203,-31,5
-5157,177,9199,199,-210,-30,5
-5209,374,9107,117,-211,-56,5
-5209,374,9107,117,-211,-56,5
-5118,205,9102,43,-199,-98,5
-4979,262,9104,-25,-186,-131,5
-4681,-44,9028,-84,-173,-140,5
-4703,-384,8958,-79,-152,-102,5
-4698,-449,9047,-37,-117,-42,5
-4709,-307,9213,-15,-64,24,5
-4816,-220,9079,-33,-3,79,5
-4870,-155,8882,-65,17,114,5
-4931,-124,8780,-89,18,129,5
-4931,-124,8780,-89,18,129,5
-4945,-175,8651,-100,10,137,5
-4991,-102,8583,-83,-4,135,5
-4943,-43,8626,-37,-15,129,5
-4893,-88,8517,12,-17,123,5
-4846,-39,8463,52,-23,128,5
-5004,13,8395,79,-39,133,5
-4996,246,8545,87,-78,120,5
-5139,669,8895,45,-91,67,5
-5156,713,9230,-36,-62,-20,5
-5156,713,9230,-36,-62,-20,5
-5175,510,8985,-115,-29,-119,5
-4730,2,8930,-165,-12,-174,5
-5020,-400,8801,-101,9,-158,5
-4608,41,8968,-86,17,-98,5
-4880,-107,8659,-127,-3,-55,5
-4826,-204,8635,-38,-16,16,5
-4832,-318,8498,-30,-10,26,5
-4832,-318,8498,-30,-10,26,5
-4804,-285,8478,-16,-17,31,5
-4803,-272,8578,-1,-24,37,5
-4717,-309,8662,13,-21,52,5
-4981,-216,8517,15,-22,57,5
-4833,-220,8535,31,-33,53,5
-4733,-183,8584,37,-28,58,5
-4790,-108,8505,43,-34,68,5
-4889,-200,8676,53,-48,73,5
-4535,-401,9036,81,-5,108,5
-4535,-401,9036,81,-5,108,5
-4554,-535,9326,97,81,165,5
-3736,31,10173,27,199,259,5
-4853,340,9609,-109,328,313,5
-7128,-792,1436,-144,267,313,5
-5212,-556,8076,75,-117,184,5
-5097,504,9589,171,-167,110,5
-4917,21,9087,98,-241,133,5
-5017,-9,9261,95,-213,109,5
-5150,142,9294,131,-56,65,5
-5150,142,9294,131,-56,65,5
-4892,39,8982,150,-22,65,5
-4910,43,8958,130,-37,81,5
-4809,-40,8937,103,-46,109,5
-4895,16,8877,80,-66,125,5
-4993,215,9000,58,-88,119,5
-5145,581,9260,37,-97,79,5
-5297,1146,9842,-12,-32,-20,5
-5414,976,9217,-136,37,-166,5
-5113,457,8842,-237,27,-285,5
-5113,457,8842,-237,27,-285,5
-4399,87,8956,-287,24,-309,5
-4479,-382,8837,-296,48,-240,5
-4906,-573,8541,-232,59,-150,5
-5058,-531,8587,-133,72,-111,5
-4828,-333,8592,-36,76,-96,5
-4768,-317,8683,0,29,-95,5
-4661,-192,8842,-4,5,-79,5
-4701,-398,8727,-31,27,-51,5
-4800,-477,8565,-46,61,-20,5
-4800,-477,8565,-46,61,9,5
-4749,-452,8470,-29,78,9,5
-4794,-314,8364,-14,64,31,5
-4888,-253,8360,-10,37,40,5
-4851,-217,8355,-3,19,39,5
-4807,-94,8340,5,15,36,5
-4884,-116,8255,7,1,37,5
-4841,-157,8321,5,-36,40,5
-4788,-284,8486,1,-51,46,5
-4677,-392,8922,16,-34,65,5
-4677,-392,8922,29,39,85,5
-4676,-178,9488,29,39,85,5
-4557,346,9934,-12,164,71,5
-4476,1032,10067,-117,364,64,5
-4734,1752,6370,-195,712,41,5
-6394,100,8507,-40,122,-59,5
-4731,-879,8557,529,-150,-178,5
-5035,-467,8602,525,-135,-122,5
-4936,-299,9117,424,-298,-10,5
-5432,241,9178,316,-266,-26,5
-5432,241,9178,229,-182,-72,5
-5107,10,8982,229,-182,-72,5
-4960,-104,8878,224,-142,-76,5
-4802,-248,8889,217,-126,-41,5
-4902,-211,9078,183,-147,-3,5
-4800,-57,9153,104,-166,-6,5
-4770,-222,9134,16,-176,-17,5
-4756,-369,9036,23,-133,-16,5
-4607,-315,8880,42,-117,43,5
-4712,-208,8796,48,-122,109,5
-4674,-55,8858,30,-112,139,5
-4674,-55,8858,30,-112,139,5
-4846,51,8945,-21,-105,157,5
-4937,189,8870,-70,-97,156,5
-4961,425,8691,-94,-110,112,5
-5233,783,9017,-106,-126,33,5
-4942,697,9274,-128,-98,-74,5
-4827,276,9333,-151,-31,-145,5
-4780,-153,9221,-167,48,-146,5
-4916,545,9347,-179,102,-104,5
-5005,123,8755,-301,107,-92,5
-5005,123,8755,-301,107,-92,5
-5173,-245,8096,-381,25,-109,5
-5155,-951,7694,-244,-32,-121,5
-4704,-707,8164,5,-88,-104,5
-4478,-535,8548,142,-125,-32,5
-4876,-252,8657,189,-131,23,5
-5033,-45,8616,206,-118,29,5
-4950,39,8608,218,-90,4,5
-4871,81,8809,196,-53,-14,5
-4748,106,8822,153,-49,-25,5
-4748,106,8822,153,-49,-25,5
-4773,35,8931,127,-72,-38,5
-4671,5,9016,95,-86,-33,5
-4682,-118,8953,67,-86,-21,5
-4736,-190,8889,58,-62,-7,5
-4666,-224,8851,54,-30,16,5
-4683,-220,8744,47,-8,51,5
-4668,-177,8542,28,-16,80,5
-4847,-156,8504,31,-40,86,5
-4821,-69,8498,45,-62,81,5
-4821,-69,8498,45,-62,81,5
-4687,-332,8705,-66,-26,8,5
-4713,-446,8788,-56,-8,42,5
-5026,-281,8641,-58,-3,48,5
-4618,-382,8596,-53,-19,70,5
-4992,-308,8751,-11,-7,71,5
-4801,-181,8861,30,18,67,5
-4835,160,8681,30,40,56,5
-4835,160,8681,30,40,56,5
-4469,263,8920,-21,70,57,5
-4949,-2,8380,-103,73,111,5
-5371,-202,8041,-75,38,87,5
-4877,-451,8335,-4,-6,84,5
-4435,-466,8965,36,8,121,5
-4447,-323,9093,10,67,191,5
-4658,-2281,-4386,-9,-20,241,5
-5207,3,9570,270,-345,135,5
-4445,910,10198,383,-270,103,5
-4445,910,10198,383,-270,103,5
-4904,301,9649,178,-290,79,5
-5035,202,9637,21,-279,23,5
-4895,184,9714,42,-135,-32,5
-4754,-143,9065,68,-58,-19,5
-4766,-120,9037,67,-65,14,5
-4868,-138,9040,55,-51,37,5
-4770,-143,9113,38,-47,51,5
-4852,-10,9174,12,-36,61,5
-4920,13,9084,-3,-26,54,5
-4920,13,9084,-3,-26,54,5
-4962,284,9418,-15,0,21,5
-5117,480,9326,-62,38,-28,5
-5127,452,9437,-138,38,-100,5
-5235,1033,9601,-222,36,-193,5
-5205,253,8764,-382,72,-283,5
-4731,-740,7671,-372,31,-310,5
-4328,-1038,7856,-146,-43,-233,5
-4613,-683,8061,83,-91,-111,5
-4916,-193,8544,177,-182,-37,5
-4916,-193,8544,177,-182,-37,5
-4877,-35,9048,142,-218,-39,5
-4616,-251,8901,62,-139,-50,5
-4362,-429,8904,39,-21,-28,5
-4469,-463,8857,37,47,22,5
-4567,-367,8706,17,59,59,5
-4666,-364,8842,-10,44,71,5
-4618,-307,8964,-25,50,73,5
-4636,-187,8835,-41,59,75,5
-4797,-99,8658,-50,40,67,5
-4797,-99,8658,-50,40,67,5
-4744,-124,8790,-61,20,56,5
-4530,-346,8956,-83,37,63,5
-4583,-802,9457,-50,116,108,5
-3882,-174,10465,-14,318,172,5
-4150,492,9943,-152,580,262,5
-4980,340,8811,-329,761,285,5
-4966,120,2367,-415,629,203,5
-5553,-640,8062,89,-106,159,5
-4529,-675,8730,594,-290,177,5
-4529,-675,8730,594,-246,251,5
-4811,-410,8483,509,-246,251,5
-5337,238,8986,447,-367,275,5
-5540,697,9099,368,-276,157,5
-5497,966,9158,278,-178,12,5
-5211,762,9067,177,-182,-103,5
-4719,251,9058,79,-218,-152,5
-4497,-189,9229,10,-218,-111,5
-4695,-246,9335,-21,-168,-42,5
-4798,-123,9383,-23,-121,8,5
-4798,-123,9383,-16,-91,42,5
-4771,10,9184,-16,-91,42,5
-4748,-34,8889,-16,-76,62,5
-5091,55,9040,-4,-53,69,5
-4934,61,8758,1,-23,49,5
-4986,82,8774,-8,-35,32,5
-4972,125,8684,-32,-43,6,5
-5042,-44,8553,-26,-57,-12,5
-4727,128,9190,-7,-70,-34,5
-4944,233,9486,-23,-21,-47,5
-4944,233,9486,-87,32,-71,5
-5073,333,9409,-87,32,-71,5
-4965,671,9244,-187,53,-109,5
-5014,251,8968,-328,65,-138,5
-4876,-340,8501,-371,27,-131,5
-4771,-386,8355,-264,12,-108,5
-5017,-339,8266,-102,16,-85,5
-5090,-187,8330,26,-7,-84,5
-5082,-284,8182,123,-43,-104,5
-4639,-84,8464,169,-101,-105,5
-4532,-130,8743,157,-124,-73,5
-4532,-130,8743,157,-124,-73,5
-4737,-101,8982,109,-110,-43,5
-4810,-14,9050,56,-72,-36,5
-4675,-142,8961,-2,-23,-32,5
-4588,-446,8815,-40,15,-10,5
-4632,-570,8667,-18,34,27,5
-4754,-541,8597,28,37,64,5
-4753,-126,8568,52,15,80,5
-4875,-19,8590,34,-21,72,5
-5039,-72,8348,9,-64,39,5
-5039,-72,8348,9,-64,39,5
-4666,-288,8507,35,-78,27,5
-5395,-454,8286,137,-36,21,5
