aX,aY,aZ,gX,gY,gZ,target
-6698,-1356,978,23,-891,-331,4
-6227,-1798,68,42,-1329,-293,4
-6227,-1798,68,172,-1797,-213,4
-5678,-1708,-1703,172,-1797,-213,4
-5553,-1550,-3772,346,-2453,-101,4
-4937,-1342,-5041,577,-3390,-15,4
-3658,-1661,-3978,716,-4561,56,4
-1880,-2070,-2153,638,-5842,233,4
1367,-1561,23997,-699,-4765,1372,4
65,2520,28279,-699,-4765,1372,4
65,2520,28279,-699,-4765,1372,4
-1592,4802,25379,-1332,-2678,1084,4
-2858,3378,18561,-1635,-1222,531,4
-2640,-37,14130,-1279,-631,-1,4
-1972,-2864,14142,-313,-543,-258,4
-1828,-3365,16238,755,-433,-208,4
-2152,-2127,17444,1429,-128,-59,4
-2847,-643,18111,1668,347,60,4
-3158,485,18563,1574,900,76,4
-3292,549,17979,1251,1441,4,4
-3292,549,17979,1251,1441,4,4
-3399,619,17054,890,1870,-67,4
-3062,624,15376,592,2234,-117,4
-2949,586,13324,381,2543,-142,4
-3054,507,11947,203,2718,-134,4
-3269,686,11459,21,2734,-122,4
-3589,851,11143,-159,2711,-121,4
-4011,959,10759,-283,2743,-171,4
-4001,480,9956,-352,2882,-257,4
-3682,61,9019,-329,3090,-312,4
-3682,61,9019,-329,3090,-312,4
-3743,-294,7706,-243,3279,-312,4
-3728,-324,6618,-80,3365,-289,4
-3931,-538,5240,98,3373,-244,4
-4301,-775,4043,310,3331,-190,4
-4741,-888,3096,511,3207,-131,4
-5041,-620,2951,675,2995,-81,4
-5486,-362,2877,741,2747,-61,4
-5784,-459,2216,676,2478,-78,4
-6001,-330,1460,520,2147,-103,4
-6001,-330,1460,293,1728,-124,4
-5959,-319,802,293,1728,-124,4
-6074,-236,270,45,1239,-125,4
-6263,-78,-4,-161,719,-126,4
-6242,-132,-113,-291,210,-143,4
-6159,-531,-72,-324,-274,-132,4
-5931,-1198,-204,-281,-702,-61,4
-5265,-1579,-1782,-139,-1084,81,4
-5519,-1166,-4520,147,-1533,266,4
-5681,-100,-6876,436,-2268,364,4
-5681,-100,-6876,436,-2268,364,4
-4536,132,-7204,547,-3468,357,4
-2590,-150,-5374,481,-5038,343,4
-149,-1276,-2664,204,-6788,467,4
-388,-2293,3860,-185,-8431,693,4
2274,-1684,14346,-293,-9432,785,4
4325,-544,27694,-590,-8627,791,4
1561,957,32078,-1121,-6140,959,4
-535,3348,28746,-1692,-3077,935,4
-2060,2415,19410,-1930,-1084,593,4
-2060,2415,19410,-1930,-1084,593,4
-1749,564,13759,-1579,-420,245,4
-2508,-1633,12585,-789,-489,-31,4
-2266,-2805,13998,262,-620,-123,4
-2181,-1860,15276,1160,-472,-105,4
-2800,-673,15305,1557,-73,-81,4
-3285,484,14675,1534,296,-101,4
-3477,597,14829,1150,548,-177,4
-2842,-11,13483,649,738,-229,4
-2341,-498,10795,296,835,-169,4
-2341,-498,10795,132,731,-74,4
-2834,-336,9364,132,731,-74,4
-2738,-424,9215,-26,505,11,4
-2591,-439,9538,-142,345,111,4
-2793,-250,9749,-202,284,211,4
-2782,137,9524,-232,262,276,4
-2898,514,9272,-235,280,327,4
-3224,926,9208,-222,303,324,4
-3451,1344,9265,-212,319,235,4
-3536,1329,9482,-227,332,76,4
-3213,888,9954,-279,360,-73,4
-3213,888,9954,-279,360,-73,4
-2782,319,10108,-373,444,-154,4
-2593,-186,9607,-461,552,-156,4
-2708,-498,8818,-512,592,-105,4
-2939,-464,8324,-529,533,-41,4
-3012,-399,8227,-532,427,-6,4
-3146,-397,8261,-521,319,15,4
-3165,-405,8304,-480,237,29,4
-3273,-470,8368,-418,166,23,4
-3273,-470,8368,-351,95,8,4
-3345,-525,8476,-351,95,8,4
-3265,-342,8835,-275,40,-21,4
-3389,-252,9131,-199,31,-70,4
-3375,-410,9178,-136,60,-126,4
-3270,-732,9153,-83,84,-159,4
-3078,-958,9085,-52,86,-151,4
-3113,-1223,9085,-45,69,-106,4
-3098,-1367,9142,-52,32,-37,4
-3099,-1436,9238,-72,3,46,4
-3180,-1374,9203,-76,-5,119,4
-3180,-1374,9203,-76,-5,119,4
-3311,-1156,9172,-64,-16,167,4
-3347,-897,9408,-35,-41,194,4
-5869,-1115,4092,131,2308,-121,4
-6192,-1039,3251,109,2149,-44,4
-6399,-655,2652,117,1935,-1,4
-6520,-224,2222,151,1673,5,4
-6592,63,1864,197,1365,-17,4
-6814,297,1728,262,1059,-69,4
-6903,302,1653,318,778,-153,4
-6903,214,1688,336,514,-247,4
-6820,-26,1515,275,219,-313,4
-6926,-307,1250,157,-122,-338,4
-6926,-307,1250,157,-491,-346,4
-6993,-721,437,31,-491,-346,4
-6800,-972,-829,-71,-934,-340,4
-5833,-1615,-3559,-61,-1455,-296,4
-5272,-1433,-6638,232,-2056,-183,4
-4801,-1232,-8627,597,-3054,-40,4
-3093,-1158,-8086,891,-4512,95,4
-413,-1676,-5097,965,-6171,315,4
1330,-2226,-1205,784,-7762,689,4
2976,-3760,5864,495,-9027,1059,4
2976,-3760,5864,277,-9345,1375,4
3131,-3533,17032,277,-9345,1375,4
4553,-673,28855,-145,-8183,1616,4
1673,2750,-31530,-1007,-5671,1744,4
-1485,5674,27403,-1918,-2927,1559,4
-3259,4473,18521,-2315,-1315,908,4
-2112,827,14668,-1918,-893,215,4
-1594,-2061,15184,-762,-902,-108,4
-1692,-3004,17684,587,-692,-177,4
-1395,-2252,18559,1564,-189,-113,4
-1395,-2252,18559,2062,483,29,4
-1690,-955,18017,2062,483,29,4
-3053,300,17991,2122,1069,131,4
-3040,916,18058,1837,1572,141,4
-3342,1300,16930,1412,2061,103,4
-3542,1575,15436,960,2399,12,4
-3011,2160,14484,551,2640,-100,4
-2761,2553,13883,144,2926,-204,4
-3012,2718,12492,-229,3214,-294,4
-3608,2285,11020,-551,3263,-439,4
-3844,1022,9717,-727,3127,-581,4
-3844,1022,9717,-727,3127,-581,4
-3586,157,8717,-713,3007,-602,4
-3300,-323,7901,-568,2988,-497,4
-3696,-111,6550,-120,3089,-169,4
-5301,808,4375,496,3080,-238,4
-5526,224,3036,516,2925,-304,4
-5526,224,3036,516,2925,-304,4
-5469,-174,1720,519,2655,-336,4
-5589,-422,464,494,2269,-290,4
-5730,-442,-195,452,1783,-207,4
-5962,-362,-283,400,1247,-111,4
-6009,40,-50,318,703,-28,4
-6196,226,-16,175,194,14,4
-6241,-74,-678,-15,-278,17,4
-5432,-1068,-3414,-145,-787,34,4
-5424,-975,-6327,-67,-1435,130,4
-5424,-975,-6327,-67,-1435,130,4
-5203,-453,-9069,119,-2368,219,4
-3909,-582,-11540,-6,-3871,249,4
-1244,-801,-7639,168,-5762,340,4
744,-1776,-3491,20,-7775,630,4
2824,-3567,5754,-315,-9640,1084,4
5332,-2423,17644,-266,-10395,1551,4
3999,1200,-32444,-613,-9305,1811,4
1659,5083,-29114,-1488,-5935,1797,4
-1555,7069,29064,-2358,-2427,1414,4
-1555,7069,29064,-2358,-2427,1414,4
-2683,3791,18440,-2623,-608,585,4
-977,-973,12476,-2020,-156,21,4
-1524,-3607,13080,-827,-366,-91,4
-1860,-3978,14584,612,-505,17,4
-1763,-1606,15851,1629,-320,127,4
-2433,259,14837,1981,148,177,4
-3220,1694,13630,1874,491,135,4
-3163,1458,12896,923,714,-119,4
-3163,1458,12896,923,714,-119,4
-2784,821,11131,523,771,-188,4
-2439,546,9136,301,767,-191,4
-2160,190,8288,130,652,-111,4
-2427,156,8683,-21,487,34,4
-2547,467,9047,-124,364,142,4
-2630,697,8971,-175,283,192,4
-2626,1274,9162,-180,250,212,4
-2870,1765,9560,-183,296,179,4
-3042,1990,10080,-220,389,69,4
-3042,1990,10080,-220,389,69,4
-3069,1775,10380,-301,468,-80,4
-2809,1389,10453,-426,535,-210,4
-2377,738,10226,-588,620,-265,4
-2280,214,9328,-743,709,-234,4
-2458,-26,8371,-847,678,-158,4
-2671,8,7830,-888,506,-72,4
-2973,-34,7904,-855,288,-15,4
-3028,-20,8404,-737,149,4,4
-3127,-15,8809,-582,127,6,4
-3127,-15,8809,-411,165,-3,4
-3200,-10,8970,-411,165,-3,4
-3248,14,9287,-247,232,-31,4
-3347,63,9419,-137,301,-76,4
-3233,123,9489,-84,339,-127,4
-3251,17,9477,-59,383,-174,4
-3226,-184,9174,-70,421,-211,4
-3152,-562,8849,-119,373,-210,4
-6500,-193,2840,-202,1433,27,4
-6500,-193,2246,-218,1196,12,4
-6802,-83,2246,-218,1196,12,4
-6893,69,2076,-175,940,-37,4
-7028,145,1914,-93,681,-94,4
-7178,181,1820,-3,417,-164,4
-7110,135,1921,41,127,-244,4
-7042,-241,1891,22,-184,-303,4
-7133,-669,1289,-32,-511,-322,4
-7088,-1026,-211,-62,-905,-324,4
-6003,-1444,-3192,62,-1418,-291,4
-6108,-1018,-6111,514,-2034,-218,4
-6108,-1018,-6111,514,-2034,-218,4
-5545,-568,-7820,1025,-2970,-180,4
-3253,-924,-8042,1422,-4275,-147,4
-1232,-1348,-4955,1629,-5944,78,4
299,-1674,-1357,1497,-7566,478,4
1971,-2859,5105,1182,-8827,796,4
3655,-3621,13497,867,-9177,1160,4
3665,-2998,22930,518,-8310,1475,4
4055,614,30257,-67,-6266,1790,4
1006,4902,29462,-1001,-3689,1934,4
1006,4902,29462,-1001,-3689,1934,4
-1983,6975,23112,-1866,-1733,1624,4
-3333,4926,16246,-2113,-763,906,4
-2846,1485,13442,-1553,-524,180,4
-1970,-1386,14597,-436,-565,-244,4
-1496,-2193,16899,643,-470,-307,4
-1923,-1015,18710,1267,-69,-196,4
-2469,233,19527,1364,554,-125,4
-2846,1103,18993,1095,1247,-98,4
-3227,1678,17931,627,1788,-170,4
-3227,1678,17931,627,1788,-170,4
-2822,1487,16085,70,2116,-285,4
-2506,1148,13697,-368,2286,-342,4
-2340,819,11979,-649,2308,-328,4
-2266,971,11580,-777,2350,-265,4
-2798,1581,11206,-815,2489,-222,4
-3537,1574,10345,-780,2599,-273,4
-3748,933,9939,-635,2638,-365,4
-3567,177,9381,-398,2728,-412,4
-3348,-642,8583,-113,2891,-379,4
-3348,-642,8583,-113,2891,-379,4
-3510,-1019,7795,169,3033,-274,4
-3485,-754,7674,400,3107,-142,4
-3980,8,7771,534,3155,-65,4
-4345,318,7366,528,3214,-77,4
-4724,-157,6037,318,3307,-155,4
-5091,-362,4753,146,3214,-157,4
-5443,-217,3550,-50,2932,-145,4
-5871,56,2457,-257,2517,-130,4
-5871,56,2457,-257,2517,-130,4
-6124,532,1763,-398,2050,-155,4
-6342,656,1137,-441,1613,-218,4
-6361,519,731,-362,1215,-290,4
-6329,260,340,-199,859,-353,4
-6290,-130,284,-12,526,-394,4
-6223,-472,294,144,199,-386,4
-6258,-592,100,220,-133,-347,4
-6313,-946,-1006,210,-507,-313,4
-5577,-1613,-3195,181,-1020,-257,4
-5577,-1613,-3195,181,-1690,-86,4
-5070,-1909,-6177,282,-1690,-86,4
-4780,-1197,-8778,446,-2734,109,4
-3908,-827,-8534,406,-4364,231,4
-1389,-1186,-5745,133,-6427,324,4
1691,-2025,-1831,-238,-8394,555,4
4399,-4033,5249,-442,-9887,888,4
4997,-4618,16403,-293,-10147,1306,4
4780,-2051,31290,-182,-8780,1549,4
2872,2250,-29259,-551,-5913,1733,4
2872,2250,-29259,-1140,-2467,1519,4
-250,4802,29327,-1140,-2467,1519,4
-2334,3828,18734,-1412,-500,817,4
-1385,154,12711,-1007,-147,229,4
-1837,-2370,13433,-4,-429,-33,4
-1609,-3078,15716,1106,-487,-98,4
-1530,-1503,16264,1908,-155,-69,4
-2048,133,15146,2165,296,8,4
-2821,1197,14057,1924,567,50,4
-2821,1391,13564,1380,653,64,4
-2821,1391,13564,789,670,76,4
-2830,1418,12849,789,670,76,4
-3087,1276,11240,346,670,42,4
-2683,955,9509,52,605,3,4
-2645,860,9280,-155,489,23,4
-2315,356,8633,-363,405,127,4
-2569,501,8589,-299,307,174,4
-2507,807,8999,-163,252,174,4
-2507,1229,9488,-55,313,132,4
-2672,1472,9943,-40,415,51,4
-2672,1472,9943,-40,415,51,4
-2752,1311,10289,-111,495,-51,4
-2519,970,10424,-229,574,-139,4
-2321,569,10183,-361,681,-188,4
-2255,239,9558,-491,758,-181,4
-2305,61,9014,-614,737,-147,4
-2275,-181,8606,-707,622,-85,4
-2347,-305,8513,-726,487,4,4
-2555,-270,8571,-664,405,99,4
-2895,-90,8769,-544,386,166,4
-2895,-90,8769,-544,386,166,4
-3152,120,8861,-404,391,176,4
-3279,259,8921,-273,406,149,4
-5673,-1313,5219,-37,1943,-3,4
-5967,-1232,4861,-56,1786,101,4
-6216,-771,4537,-69,1640,176,4
-6368,-504,3881,-95,1481,208,4
-6594,-373,3286,-72,1291,194,4
-6638,-227,2903,-28,1087,164,4
-6826,-96,2654,38,863,118,4
-6918,52,2490,89,620,50,4
-6897,20,2323,98,354,-15,4
-6838,-93,1825,55,76,-69,4
-6838,-93,1825,55,76,-69,4
-6903,-415,979,17,-231,-103,4
-6837,-461,-27,4,-604,-125,4
-6488,-702,-1268,42,-1082,-143,4
-5651,-782,-3349,238,-1601,-131,4
-5203,-591,-5435,588,-2232,-75,4
-4418,-647,-6300,902,-3217,-6,4
-3159,-510,-4790,1043,-4516,67,4
-1342,-855,-2420,1029,-5971,193,4
-99,-868,1007,838,-7281,398,4
-99,-868,1007,838,-7281,398,4
1312,-1580,6985,603,-8223,578,4
2443,-2104,16340,341,-8343,753,4
2330,-1154,24503,-17,-7234,920,4
1625,951,28770,-536,-5117,1106,4
-793,3219,25371,-981,-2870,1128,4
-2904,3509,19482,-1244,-1464,748,4
-2311,1134,15724,-1033,-922,222,4
-1464,-1111,15034,-229,-753,-88,4
-1409,-1822,16505,783,-587,-168,4
-1409,-1822,16505,783,-587,-168,4
-1463,-1191,17992,1533,-251,-149,4
-1654,-454,18711,1857,270,-81,4
-2551,265,18928,1750,838,4,4
-2652,915,18445,1332,1363,47,4
-2909,1596,17507,813,1814,50,4
-2947,2252,15999,211,2165,-51,4
-2696,2191,14015,-301,2434,-183,4
-2335,1625,12192,-657,2626,-263,4
-2335,961,10744,-824,2730,-266,4
-2335,961,10744,-813,2709,-214,4
-2709,538,9521,-813,2709,-214,4
-3202,564,9415,-682,2580,-160,4
-3649,878,9974,-494,2492,-136,4
-3866,1149,10201,-304,2613,-185,4
-3911,781,9389,-124,2858,-271,4
-3631,281,8529,58,3064,-318,4
-3578,-234,7704,207,3158,-281,4
-3830,-362,7010,297,3177,-199,4
-4067,145,6656,283,3172,-133,4
-4067,145,6656,144,3139,-103,4
-4348,349,6161,144,3139,-103,4
-4721,401,5340,-29,3072,-112,4
-5038,206,4119,-175,2932,-124,4
-5438,285,3123,-272,2715,-132,4
-5785,227,2015,-327,2420,-160,4
-5793,47,1184,-329,2057,-189,4
-5771,-178,453,-250,1702,-190,4
-5764,-141,-190,-106,1367,-166,4
-5921,20,-719,60,1000,-136,4
-5921,20,-719,224,598,-123,4
-5927,-19,-2567,370,-280,-183,4
-5927,-19,-2567,370,-280,-183,4
-5469,-597,-5989,408,-867,-160,4
-5954,-29,-8690,518,-1753,-82,4
-5111,-19,-9582,455,-2947,-37,4
-7293,-2827,27726,-6110,-4958,89,4
-190,-1369,-3280,-1903,-7005,33,4
3232,-3205,1038,-32,-8639,303,4
3232,-3205,9061,-206,-9752,710,4
3406,-4524,9061,-206,-9752,710,4
4225,-4427,19289,-149,-9748,1127,4
3675,-777,29816,-58,-8511,1397,4
1232,5133,-29655,-780,-5345,1508,4
-2828,6126,27651,-1638,-2213,993,4
-2453,2909,17156,-1793,-515,73,4
-809,-1685,11924,-1152,-140,-437,4
-1018,-4274,12478,-73,-425,-478,4
-1572,-4234,15498,1064,-585,-299,4
-1293,-2169,17109,1744,-340,-134,4
-1293,-2169,17109,1744,-340,-134,4
-2031,-340,16102,1753,122,15,4
-3073,778,15489,1316,430,62,4
-2763,711,15226,650,640,39,4
-2468,636,13228,116,919,50,4
-2827,412,10613,-247,1029,17,4
-2109,-126,7864,-411,868,20,4
-2513,-11,7167,-382,568,98,4
-2884,156,8291,-252,302,157,4
-2817,363,9531,-87,218,146,4
-2817,363,9531,-87,218,146,4
-2701,492,9566,48,321,106,4
-2602,661,9166,111,431,81,4
-2461,647,9058,75,431,75,4
-2615,705,9518,-43,379,53,4
-2750,796,10116,-189,353,-6,4
-2712,593,10309,-363,379,-94,4
-2423,267,10346,-534,464,-155,4
-2359,-119,9491,-704,554,-166,4
-2398,-513,8340,-809,526,-135,4
-2398,-513,8340,-809,526,-135,4
-2556,-745,7706,-794,366,-79,4
-2782,-660,7749,-671,175,-15,4
-3001,-526,8304,-488,26,10,4
-5058,-1048,6478,645,2482,-243,4
-4928,-1048,7099,712,2391,-173,4
-5276,-336,7640,662,2391,-122,4
-5617,-59,6655,511,2437,-116,4
-5684,108,5826,374,2415,-145,4
-5948,72,4522,274,2321,-170,4
-6181,-135,3288,263,2125,-213,4
-6181,-135,3288,263,2125,-213,4
-6307,-544,2897,326,1580,-228,4
-6410,-295,2035,131,660,-155,4
-6484,-379,1797,87,406,-143,4
-6571,-528,1570,26,105,-134,4
-6570,-1042,1383,-65,-256,-99,4
-6570,-1042,1383,-65,-256,-99,4
-6544,-1317,985,-190,-678,-28,4
-6647,-1028,934,-325,-1160,39,4
-6716,-731,608,-485,-1704,50,4
-6355,-899,-344,-607,-2277,14,4
-5191,-1625,-2478,-563,-2882,20,4
-4481,-1706,-4517,-326,-3644,142,4
-3466,-1582,-4297,-123,-4813,275,4
-1501,-1674,-1350,-124,-6169,444,4
1110,-2036,1994,-185,-7330,653,4
1110,-2036,1994,-185,-7330,653,4
1834,-3567,9160,-337,-7998,925,4
2571,-3509,17446,-613,-7787,1274,4
1794,-1646,24129,-971,-6541,1548,4
-195,1531,27553,-1455,-4678,1571,4
-1600,3632,24649,-1904,-2803,1236,4
-2298,2524,19076,-2009,-1469,602,4
-1616,-513,15001,-1474,-795,49,4
-1326,-2952,14617,-334,-526,-240,4
-1177,-4036,16247,826,-315,-270,4
-1177,-4036,16247,826,-315,-270,4
-1463,-3119,17340,1620,49,-163,4
-1956,-1917,17804,2001,566,-53,4
-2411,-821,17496,2004,1117,19,4
-2766,-95,16644,1731,1602,42,4
-3084,284,15621,1315,1924,12,4
-3049,454,13950,943,2157,-26,4
-3249,1062,12967,638,2315,-103,4
-3092,1052,12047,331,2381,-180,4
-3139,1127,11667,76,2386,-239,4
-3139,1127,11667,76,2386,-239,4
-3126,906,11564,-114,2392,-287,4
-3241,326,11054,-204,2481,-298,4
-3280,-120,10121,-163,2645,-273,4
-3414,-610,8768,-28,2814,-219,4
-3546,-238,8094,185,2903,-159,4
-3890,254,7869,337,2948,-124,4
-4262,774,7574,411,2973,-155,4
-4511,620,6811,386,2990,-229,4
-4338,-32,5566,315,2963,-268,4
-4338,-32,5566,315,2963,-249,4
-4581,-528,4706,269,2838,-249,4
-4910,-725,3649,235,2626,-174,4
-5261,-514,2910,222,2354,-98,4
-5516,28,2548,182,2034,-42,4
-5883,705,2141,107,1714,-43,4
-6250,1115,1493,50,1359,-124,4
-6379,1202,1046,48,995,-257,4
-6358,894,757,100,638,-398,4
-6239,562,686,156,266,-500,4
-6239,562,686,176,-148,-548,4
-6208,25,703,176,-148,-548,4
-6228,-354,253,156,-577,-546,4
-5826,-1019,-1208,147,-1045,-507,4
-5156,-1514,-3755,229,-1592,-380,4
-4710,-1025,-6134,330,-2526,-157,4
-3710,-1507,-5928,263,-3996,85,4
-1813,-2285,-4546,32,-5640,389,4
545,-3036,-1709,-234,-7177,696,4
2038,-4729,5059,-447,-8429,1050,4
2038,-4729,5059,-719,-8858,1403,4
4070,-4358,15087,-719,-8858,1403,4
3864,-1631,27043,-885,-7951,1706,4
1933,4060,-30193,-1381,-5549,1784,4
-1774,7051,28628,-2072,-2637,1356,4
-2857,4406,18273,-2200,-731,367,4
-823,-695,12325,-1513,-142,-390,4
-545,-4061,11913,-306,-182,-569,4
-1409,-4596,13344,1029,-255,-378,4
-1379,-2338,14961,1903,-181,-189,4
-1379,-2338,14676,2114,108,-94,4
-2068,-534,14676,2114,108,-94,4
-2545,332,14029,1820,330,-78,4
-2457,288,13878,1227,412,-67,4
-2361,2,13245,533,420,-39,4
-2429,-151,11581,39,419,26,4
-2548,-39,10406,-251,370,47,4
-2237,-406,9744,-432,315,91,4
-2285,-507,9397,-482,330,169,4
-2415,-343,8901,-387,338,243,4
-2622,351,8712,-227,274,269,4
-2622,351,8712,-227,274,269,4
-2577,813,8775,-74,218,220,4
-2458,987,9031,31,219,153,4
-2642,1245,9041,79,251,76,4
-2595,969,9006,46,234,-28,4
-2444,368,9188,-25,175,-100,4
-2305,55,9501,-131,141,-117,4
-2261,-242,9847,-258,130,-100,4
-2148,-373,10126,-374,169,-67,4
-2078,-535,9489,-419,259,-21,4
-6324,-729,4735,313,2000,-175,4
-6324,-729,4735,313,2000,-175,4
-6011,-721,4931,347,1880,-161,4
-6119,-784,5386,305,1774,-118,4
-6327,-855,4916,197,1737,-64,4
-6411,-867,3972,64,1670,-15,4
-6654,-789,3098,-67,1481,45,4
-7007,-735,2271,-111,1235,66,4
-7257,-472,1739,-89,948,37,4
-7287,-247,1679,-50,620,-29,4
-7238,-168,1968,-23,314,-111,4
-7238,-168,1968,-23,314,-111,4
-7147,-501,1939,-14,61,-183,4
-7091,-1002,1239,-27,-200,-208,4
-7210,-1335,-93,-50,-560,-183,4
-7057,-1373,-1057,-53,-1062,-145,4
-6597,-1357,-1643,-29,-1630,-130,4
-5453,-1534,-3537,31,-2200,-91,4
-5298,-940,-6047,203,-2899,4,4
-4811,-344,-7171,350,-4083,49,4
-2650,-589,-5286,339,-5668,16,4
-2650,-589,-5286,339,-5668,84,4
510,-1663,-2197,211,-7225,84,4
3144,-2306,1317,114,-8456,431,4
4348,-2801,8565,210,-9211,833,4
3689,-3114,19055,302,-8998,1151,4
2533,-1121,29408,384,-7472,1263,4
1003,2368,-30162,131,-4762,1232,4
-2043,4447,27497,-496,-1952,935,4
-2128,2470,19349,-860,-416,262,4
-1349,-1261,14299,-625,-54,-178,4
-1349,-1261,14299,-625,-54,-178,4
-964,-3582,13645,112,-145,-240,4
-1959,-3808,15522,966,-220,-114,4
-1842,-2072,17373,1505,1,25,4
-2352,-488,17407,1598,488,134,4
-3047,985,17112,1336,985,149,4
-3395,1485,16881,923,1439,62,4
-3135,1473,16147,430,1822,-95,4
-3265,882,14236,63,2100,-225,4
-3043,1124,13276,-128,2280,-323,4
-3043,1124,13276,-128,2280,-323,4
-2891,1310,13103,-289,2478,-408,4
-2823,994,12613,-456,2662,-458,4
-2738,449,11532,-582,2734,-460,4
-3034,-86,10645,-631,2710,-423,4
-3238,-642,9694,-586,2681,-340,4
-3419,-982,8829,-476,2729,-239,4
-3571,-1158,7893,-336,2794,-128,4
-3762,-652,7606,-207,2815,-29,4
-4064,-111,7558,-147,2822,7,4
-4064,-111,7558,-147,2822,-29,4
-4255,506,7834,-138,2893,-29,4
-4616,416,7166,-195,3017,-115,4
-4725,-37,6162,-259,3068,-197,4
-4707,-279,5142,-288,3012,-233,4
-4870,-764,4061,-294,2866,-189,4
-5223,-991,3123,-285,2640,-92,4
-5285,-1003,2273,-259,2368,0,4
-5509,-979,1308,-208,2048,113,4
-5735,-535,687,-118,1701,210,4
-6200,179,323,-12,1324,229,4
-6200,179,323,-12,1324,229,4
-6612,655,94,61,917,138,4
-6661,708,101,100,529,-18,4
-6766,562,221,81,155,-192,4
-6841,100,-135,-22,-251,-322,4
-6978,-606,-799,-157,-765,-394,4
-6447,-1135,-2085,-262,-1392,-404,4
-5568,-1361,-4679,-185,-2078,-333,4
-5310,-1174,-6981,58,-3020,-204,4
-5310,-1174,-6981,310,-4401,-98,4
-3921,-1158,-7249,310,-4401,-98,4
-1200,-2013,-5297,390,-6023,54,4
1261,-2112,-2140,395,-7629,406,4
2268,-2426,4223,387,-8902,700,4
3879,-2863,14764,412,-9279,870,4
-1844,5210,29327,-614,-2840,566,4
-1844,5210,29327,-614,-2840,566,4
-1995,2318,19685,-1055,-1007,-153,4
-1995,2318,14207,-835,-441,-585,4
-573,-1684,14207,-835,-441,-585,4
-746,-4265,13447,-42,-442,-566,4
-1293,-4249,14941,819,-488,-320,4
-1389,-2467,15868,1367,-337,-94,4
-2158,-941,15126,1471,10,39,4
-2714,-120,14281,1234,302,98,4
-2699,148,13630,788,490,118,4
-2791,545,11881,391,606,124,4
-3068,838,10613,116,543,45,4
-2736,546,9560,-75,413,-39,4
-2736,546,9560,-177,350,-77,4
-2603,399,9202,-177,350,-77,4
-2452,19,9136,-219,321,-71,4
-2531,-118,9156,-160,263,-32,4
-2264,110,9168,-45,237,3,4
-2165,244,9071,43,197,43,4
-2232,350,9443,88,173,89,4
-2433,430,9859,97,232,100,4
-2469,358,9951,37,302,74,4
-2531,123,10068,-89,340,45,4
-2531,123,10068,-89,340,45,4
-2476,28,10421,-249,396,26,4
-2494,14,10488,-405,508,11,4
-6346,-653,4553,24,2057,-53,4
-6382,-747,4028,-50,1896,-28,4
-6504,-891,3318,-91,1716,12,4
-6593,-756,2726,-81,1538,50,4
-6829,-446,2266,-38,1331,59,4
-7082,-239,1944,-3,1064,37,4
-7082,-239,1944,37,772,-11,4
-7097,-46,2152,37,772,-11,4
-7129,53,2305,58,521,-73,4
-7109,-15,2118,61,307,-136,4
-7217,-321,1610,51,81,-186,4
-7262,-617,824,39,-211,-216,4
-7210,-750,200,30,-593,-229,4
-7079,-579,-484,-15,-1061,-238,4
-6277,-630,-1513,-85,-1574,-270,4
-5489,-733,-4165,-33,-2072,-228,4
-5486,-380,-7611,196,-2800,-139,4
-5486,-380,-7611,196,-2800,-139,4
-4644,-49,-8837,418,-4112,-139,4
-2067,-516,-6545,483,-5863,-142,4
698,-1887,-2489,331,-7586,34,4
3196,-2458,1529,102,-8917,356,4
4277,-3477,11521,-23,-9699,666,4
4201,-2760,23493,-248,-9123,1009,4
2623,-866,-32435,-594,-6924,1227,4
196,2070,32273,-1066,-3905,1156,4
-1771,2743,23430,-1351,-1536,738,4
-1771,2743,23430,-1351,-1536,738,4
-1454,270,15579,-1142,-533,198,4
-1219,-2569,13668,-403,-466,-138,4
-1284,-3777,16457,637,-551,-199,4
-1048,-3278,18579,1450,-329,-147,4
-1672,-2109,18963,1802,190,-29,4
-2420,-538,19306,1684,734,65,4
-2719,348,19027,1223,1283,72,4
-3097,658,18208,636,1762,-15,4
-2679,236,16223,23,2098,-111,4
-2679,236,16223,23,2098,-111,4
-2603,-149,13531,-398,2291,-135,4
-2366,-204,11960,-626,2370,-92,4
-2504,180,11656,-706,2456,-9,4
-2877,738,11466,-720,2568,29,4
-3384,570,11091,-682,2660,6,4
-3670,403,10571,-551,2756,-46,4
-3605,-75,9932,-355,2909,-106,4
-3446,-526,9336,-134,3125,-118,4
-3412,-662,8246,48,3326,-76,4
-3412,-662,8246,48,3326,-76,4
-3742,-812,6795,158,3412,-29,4
-3939,-970,5411,207,3349,28,4
-4090,-661,5047,215,3175,107,4
-4536,-7,5717,191,3003,163,4
-4861,-4,5326,108,2935,171,4
-5053,123,4413,16,2889,160,4
-5355,240,3235,-94,2785,166,4
-5499,61,1685,-183,2573,166,4
-5827,-150,323,-204,2244,160,4
-5827,-150,323,-204,2244,160,4
-6017,-125,-610,-171,1791,156,4
-6282,252,-859,-155,1252,155,4
-6393,532,-668,-121,714,109,4
-6509,574,-437,-76,256,7,4
-6500,230,-357,-36,-152,-95,4
-6526,13,-582,-82,-600,-160,4
-6437,-363,-1481,-224,-1196,-196,4
-5934,-373,-3834,-272,-1885,-207,4
-5912,-148,-6675,-169,-2699,-208,4
-5912,-148,-6675,-169,-2699,-258,4
-4666,-9,-8683,-26,-3914,-258,4
-2286,-602,-7757,6,-5602,-273,4
265,-1369,-4286,-113,-7506,-119,4
3669,-2682,701,-189,-9205,88,4
4631,-5033,10700,-109,-10113,369,4
5343,-4019,24716,117,-9515,726,4
3129,154,-27449,43,-6926,963,4
-518,4686,-31832,-562,-3499,899,4
-2237,4066,22408,-1240,-1133,178,4
-2237,4066,22408,-1274,-421,-447,4
-552,-314,13788,-1274,-421,-447,4
-625,-4240,12646,-626,-596,-626,4
-1557,-1919,15223,1560,-103,-64,4
-1557,-1919,15223,1560,-103,-64,4
-2175,-478,14455,1395,157,41,4
-2639,129,14334,938,348,90,4
-2689,452,13520,423,565,59,4
-2678,206,11465,97,733,-12,4
-2678,206,11465,-61,751,-80,4
-2432,94,9419,-61,751,-80,4
-2003,-283,8108,-135,620,-80,4
-2187,-477,8391,-127,432,-11,4
-2049,-430,9206,-73,301,42,4
-2193,-149,9497,9,287,67,4
-2289,145,9467,73,290,64,4
-2085,172,9597,92,295,48,4
-2194,5,10124,79,351,42,4
-2368,-129,10460,10,446,23,4
-2368,-129,10522,-117,529,-11,4
-2279,-174,10522,-117,529,-11,4
-1911,-338,10052,-272,626,-29,4
-2078,-512,9389,-394,701,-7,4
-2212,-308,8813,-480,679,15,4
-2510,-269,8464,-538,556,4,4
-2699,-278,8584,-554,424,-25,4
-2660,-340,8925,-529,345,-47,4
-5746,-987,6495,-255,2079,19,4
-6047,-887,5941,-249,2079,45,4
-6278,-851,5085,-182,2070,47,4
-6519,-868,4108,-78,2001,36,4
-6668,-985,3448,31,1827,29,4
-6668,-985,3448,112,1594,43,4
-6699,-1100,3352,112,1594,43,4
-6780,-1082,3041,132,1364,73,4
-6768,-981,3050,123,1141,103,4
-6764,-954,2757,97,962,130,4
-6757,-711,2348,100,808,141,4
-6911,-512,1654,120,618,128,4
-6857,-496,1099,141,373,99,4
-6814,-518,756,133,83,73,4
-6952,-595,94,75,-257,56,4
-6952,-595,94,6,-680,28,4
-7229,-539,-794,6,-680,28,4
-6937,-589,-1885,-18,-1185,-22,4
-6264,-655,-4888,135,-1731,-59,4
-6526,-123,-7795,484,-2499,-62,4
-5345,539,-9627,830,-3859,-145,4
-2545,163,-8135,1003,-5682,-232,4
815,-984,-3451,943,-7509,-159,4
5455,-3604,9217,428,-9699,602,4
5090,-3990,20749,274,-9302,1048,4
5090,-3990,20749,274,-9302,1048,4
3195,-1074,31046,-159,-7553,1491,4
-168,2596,-31843,-784,-4911,1479,4
-2366,4030,27725,-1314,-2390,930,4
-2094,936,18771,-1406,-890,183,4
-528,-3133,14273,-813,-411,-186,4
-1207,-4863,14179,279,-373,-114,4
-1664,-3713,16113,1271,-294,76,4
-2109,-1808,17495,1789,65,220,4
-2816,-74,17456,1795,549,266,4
-2816,-74,17456,1795,549,266,4
-3292,1037,17346,1463,1043,219,4
-3644,1574,17109,998,1507,85,4
-3499,1652,16350,462,1891,-117,4
-3229,1422,14878,18,2183,-304,4
-2970,1439,14061,-290,2415,-452,4
-2828,885,13188,-533,2617,-541,4
-2574,-177,11849,-679,2759,-526,4
-2516,-1040,10462,-712,2749,-387,4
-2955,-1551,9665,-646,2665,-181,4
-2955,-1551,9665,-646,2665,-181,4
-3349,-1288,9346,-497,2652,21,4
-3681,-614,9171,-321,2767,149,4
-4073,123,8746,-133,2945,168,4
-4277,211,7708,40,3094,110,4
-4092,31,7396,193,3145,43,4
-4035,-68,7195,265,3180,25,4
-4456,-89,6410,285,3227,34,4
-4756,160,5705,277,3274,20,4
-5353,203,4323,194,3240,-10,4
-5770,-169,458,-281,1704,-100,4
-5971,-116,-171,-257,1298,-46,4
-6149,145,-404,-189,883,-28,4
-6260,390,-410,-106,477,-64,4
-6434,308,-669,-26,98,-141,4
-6525,-31,-1375,19,-306,-222,4
-6525,-31,-1375,19,-306,-222,4
-6106,-464,-3427,36,-810,-270,4
-5904,-366,-6807,157,-1478,-248,4
-5291,28,-10493,427,-2561,-222,4
-3732,183,-11607,673,-4287,-188,4
-735,-463,-7904,704,-6467,-119,4
2358,-2240,-2243,497,-8467,125,4
4881,-3337,4643,221,-9794,476,4
5812,-6382,15306,62,-10285,885,4
5935,-3591,29446,-194,-9173,1374,4
5935,-3591,29446,-194,-9173,1374,4
2839,1223,-26573,-431,-6475,1741,4
-1215,5998,-32139,-1343,-3201,1495,4
-2397,4823,21713,-1933,-968,553,4
-604,556,12789,-1539,-192,-214,4
-1471,-3391,12899,-469,-387,-555,4
-1164,-5024,15840,786,-533,-541,4
-802,-3402,17481,1707,-218,-346,4
-1798,-1330,17040,1964,321,-141,4
-2914,290,16071,1640,713,-42,4
-2914,290,16071,963,948,-29,4
-2652,412,15055,963,948,-29,4
-2554,417,13261,321,1130,14,4
-2523,169,10764,-223,1127,53,4
-2589,86,8169,-527,946,97,4
-2892,465,7501,-593,682,102,4
-2987,430,8210,-500,507,65,4
-2952,301,9090,-324,478,5,4
-2858,222,9314,-138,543,-47,4
-2700,244,9208,25,614,-70,4
-2700,244,9208,76,660,-73,4
-2671,490,9160,76,660,-73,4
-2687,419,9201,23,667,-100,4
-2580,277,9177,-88,646,-122,4
-2512,17,8914,-223,585,-136,4
-2476,-385,8870,-337,525,-122,4
-2560,-535,8752,-428,493,-84,4
-2616,-695,8458,-500,428,-40,4
-2744,-736,8475,-525,324,0,4
-2931,-547,8611,-506,232,39,4
-2931,-547,8831,-450,167,41,4
-3036,-515,8831,-450,167,41,4
-3087,-577,9034,-365,163,23,4
-3821,-494,11545,393,967,-243,4
-4058,-136,12245,393,1141,-244,4
-4169,110,12594,377,1395,-286,4
-4278,166,12339,340,1684,-348,4
-4274,-189,11455,278,1918,-399,4
-4095,-806,10660,205,2031,-398,4
-4095,-806,10660,205,2089,-309,4
-3901,-1433,10530,149,2089,-309,4
-4199,-1738,10284,128,2189,-155,4
-4494,-1580,10004,147,2328,5,4
-4895,-1019,9439,188,2491,113,4
-5169,-546,8310,237,2629,154,4
-5286,8,7609,329,2685,135,4
-5521,770,7642,454,2717,72,4
-5820,679,7531,546,2786,-43,4
-5849,7,6624,609,2874,-157,4
-5849,7,6624,643,2910,-193,4
-5733,-698,5877,643,2910,-193,4
-5626,-984,5395,637,2891,-139,4
-5691,-926,4834,582,2834,-43,4
-5815,-498,4377,485,2726,48,4
-6102,264,3943,383,2613,103,4
-6375,577,2706,331,2515,90,4
-6479,476,1305,398,2381,21,4
-6524,214,78,506,2153,-40,4
-6748,-151,-884,605,1786,-61,4
-6748,-151,-884,685,1375,-59,4
-6695,-283,-1014,685,1375,-59,4
-6463,-303,-903,703,1001,-36,4
-6537,-62,-990,665,660,2,4
-6674,191,-1164,599,323,8,4
-6654,185,-1469,498,-15,-7,4
-6746,90,-2529,310,-422,-14,4
-6829,7,-3503,71,-976,-25,4
-6400,-20,-4217,-189,-1619,-50,4
-5787,-430,-6815,-344,-2240,-36,4
-5440,9,-10071,-342,-3167,20,4
-5440,9,-10071,-342,-3167,20,4
-4761,629,-10744,-375,-4778,10,4
-1745,337,-8712,-543,-6774,-99,4
2184,-786,-3547,-866,-8823,-122,4
5144,-2547,3135,-1317,-10536,151,4
7841,-5102,14116,-1394,-11479,607,4
8207,-3964,29367,-1422,-10507,1207,4
2706,-483,-26571,-1371,-7660,1779,4
-2090,3529,-30214,-1813,-4321,1609,4
-3042,3908,25883,-2034,-1795,788,4
-3042,3908,25883,-2034,-1795,788,4
-1363,-4555,17271,720,-759,-330,4
-1363,-4555,17271,720,-759,-330,4
-1032,-3830,20038,1749,-479,-188,4
-1755,-2348,20285,2168,164,-25,4
-2471,-799,20201,2012,781,115,4
-2718,378,19952,1410,1347,179,4
-3060,736,18848,648,1855,138,4
-2720,636,16571,-56,2253,65,4
-2720,636,16571,-56,2253,65,4
-2742,690,14197,-551,2483,28,4
-2782,1020,12516,-810,2640,0,4
-2664,1330,12338,-901,2789,-51,4
-3030,1938,13007,-945,2971,-122,4
-3114,1549,12074,-967,3161,-226,4
-3160,221,10957,-830,3316,-310,4
-3158,-880,9694,-564,3516,-293,4
-3089,-1546,8094,-282,3710,-180,4
-3364,-1458,6813,-15,3777,-8,4
-3364,-1458,6813,-15,3777,-8,4
-3657,-1166,6081,175,3722,141,4
-3943,-192,6021,312,3635,229,4
-4194,1209,6522,380,3651,198,4
-4832,1539,5082,392,3786,48,4
-5047,868,3014,439,3835,-147,4
-5332,-108,1125,517,3682,-277,4
-5115,-597,63,607,3356,-329,4
-5276,-1171,-765,629,2930,-264,4
-5290,-1128,-1302,598,2474,-111,4
-6227,613,-3786,439,605,181,4
-6227,613,-3786,439,605,181,4
-6518,697,-4381,283,-7,85,4
-6646,490,-4779,18,-766,-23,4
-6086,43,-6790,-208,-1567,-125,4
-5956,387,-8604,-234,-2511,-141,4
-5432,533,-11375,-166,-3970,-191,4
-5432,533,-11375,-166,-3970,-191,4
-10,2872,-28107,-1082,-5113,1332,4
-10,2872,-28107,-1082,-5113,1332,4
-2673,4761,29247,-1624,-2120,788,4
-1883,1361,18228,-1648,-424,30,4
-1883,1361,18228,-937,-92,-368,4
-778,-2652,12033,-937,-92,-368,4
-2072,-4119,11526,83,-442,-329,4
-2039,-3628,16040,1087,-724,-193,4
-1878,-1958,17962,1521,-489,-115,4
-2489,-604,16692,1370,-31,-32,4
-3102,37,15183,838,276,21,4
-2975,-96,14323,184,442,78,4
-3239,138,12845,-295,587,125,4
-3023,8,10612,-628,615,119,4
-3023,8,10612,-671,501,116,4
-2933,-149,8828,-671,501,116,4
-2951,167,8520,-538,387,109,4
-3028,215,9242,-366,365,69,4
-2823,165,9860,-194,397,4,4
-2751,25,9934,-54,466,-47,4
-5992,-768,3395,-274,2401,240,4
-6120,-510,3395,-274,2401,240,4
-6253,-1,3115,-169,2204,252,4
-6602,445,2828,-14,2047,211,4
-6815,568,2120,150,1910,119,4
-6905,381,1490,282,1704,1,4
-6954,105,1147,306,1394,-76,4
-7040,59,1008,219,997,-110,4
-7095,162,1313,67,589,-139,4
-7125,122,1490,-110,229,-179,4
-7111,-404,1361,-246,-100,-215,4
-7111,-404,1361,-246,-100,-215,4
-6966,-1010,963,-332,-400,-206,4
-6990,-1215,293,-384,-731,-152,4
-6947,-1016,-660,-397,-1122,-109,4
-6362,-954,-3030,-329,-1594,-95,4
-6296,-407,-7016,-12,-2226,-62,4
-5816,251,-10442,384,-3302,-76,4
-4248,1106,-9226,821,-4951,-211,4
-1086,898,-4719,950,-6872,-354,4
1905,-687,943,775,-8483,-229,4
1905,-687,943,775,-8483,-229,4
3059,-2281,7121,564,-9467,45,4
3625,-3345,18288,280,-9252,317,4
4502,-1933,27652,-21,-7639,654,4
836,418,-32446,-804,-5099,964,4
-1625,2038,26999,-1656,-2723,846,4
-1762,342,19828,-2043,-1212,426,4
-1249,-2206,14074,-1640,-608,166,4
-2115,-3582,13188,-660,-585,67,4
-2195,-3859,15448,387,-644,29,4
-2195,-3859,15448,387,-644,29,4
-1813,-2751,17659,1137,-356,53,4
-2499,-1653,17453,1401,177,124,4
-3062,-793,16911,1294,654,150,4
-3178,-522,16511,967,1078,120,4
-3363,-186,16064,606,1459,72,4
-3208,26,14630,288,1777,-3,4
-3103,327,13079,21,1981,-82,4
-3002,538,12005,-189,2095,-139,4
-2993,776,11746,-343,2152,-179,4
-2993,776,11746,-343,2152,-179,4
-3215,878,11858,-437,2200,-230,4
-3273,272,11361,-466,2279,-280,4
-3232,-428,10868,-358,2397,-280,4
-3428,-697,10604,-180,2585,-226,4
-3616,-996,9848,-23,2778,-164,4
-3686,-1031,9080,102,2894,-113,4
-3710,-867,8768,177,2946,-65,4
-3903,-787,8175,147,2998,-12,4
-4992,-290,5452,-69,3119,42,4
-4992,-290,5452,-69,3119,42,4
-5292,-160,4213,-72,2992,36,4
-5633,449,4216,-48,2761,16,4
-6032,329,3521,-31,2580,-54,4
-5863,-117,2775,27,2425,-142,4
-5849,-722,1722,91,2241,-149,4
-5962,-1038,422,167,1970,-87,4
-5962,-1038,422,226,1582,2,4
-6287,-987,-504,226,1582,2,4
-6546,-617,-711,262,1098,66,4
-6885,0,-551,263,591,63,4
-6935,57,-244,206,105,-13,4
-6685,-443,-468,69,-352,-78,4
-7322,-673,-1307,-98,-824,-108,4
-6506,-982,-3079,-211,-1447,-142,4
-5759,-1195,-5944,-97,-2227,-78,4
-5464,-721,-7610,190,-3255,31,4
-5464,-721,-7610,423,-4655,73,4
-3946,-410,-7339,423,-4655,73,4
-1680,-501,-5082,494,-6249,87,4
1294,-1095,-817,405,-7762,205,4
1691,-1921,5402,302,-8908,433,4
4454,-1907,15745,261,-9130,634,4
3164,-555,25834,139,-7980,863,4
-222,3649,-31539,-339,-5673,855,4
-2561,4266,28088,-1100,-3050,372,4
-1939,897,20277,-1362,-1218,-296,4
-1939,897,20277,-1065,-534,-532,4
-407,-2852,13846,-1065,-534,-532,4
-1293,-4633,11995,-321,-569,-354,4
-1810,-3970,13473,568,-770,-64,4
-2313,-2067,15298,1152,-753,85,4
-2652,-747,15255,1246,-455,134,4
-2833,-138,14404,1032,-116,138,4
-2904,128,13829,653,131,141,4
-2949,378,12689,263,295,115,4
-3206,648,11029,39,372,49,4
-2894,358,9988,-102,330,-67,4
-2894,358,9988,-102,330,-67,4
-2541,-100,9560,-150,295,-105,4
-2489,-324,9668,-155,287,-73,4
-2315,-483,9506,-102,295,-18,4
-2338,-376,9303,-14,292,42,4
-2486,-303,9466,49,271,81,4
-2440,-324,9797,58,305,95,4
-2366,-451,9897,37,377,107,4
-2372,-491,10169,-5,444,120,4
-2352,-507,10308,-110,493,134,4
-2352,-507,10308,-110,493,134,4
-2213,-496,10352,-249,582,152,4
-2317,-380,9759,-367,705,171,4
-2316,-372,9171,-448,757,191,4
-2522,-315,8556,-475,726,220,4
-5639,167,8482,79,2429,-43,4
-5639,167,8244,145,2587,-120,4
-5877,40,8244,145,2753,-192,4
-5881,-114,7361,172,2753,-192,4
-5888,-574,6046,170,2846,-228,4
-5850,-1081,5139,121,2778,-199,4
-5935,-1555,4780,32,2604,-106,4
-5919,-1733,4636,-54,2444,32,4
-5909,-1539,3864,-116,2340,191,4
-6354,-807,3123,-67,2251,317,4
-6623,-254,2050,111,2187,342,4
-6939,-86,490,408,2097,284,4
-6939,-86,490,408,2097,284,4
-7020,10,-496,736,1865,204,4
-6926,16,-796,1001,1517,144,4
-6885,131,-672,1129,1132,104,4
-6884,283,-343,1092,777,67,4
-7113,614,-425,887,443,13,4
-7447,721,-1502,553,10,-65,4
-7633,551,-2602,205,-595,-168,4
-7617,463,-2763,-25,-1279,-285,4
-7263,427,-2821,-187,-1988,-423,4
-7263,427,-2821,-187,-1988,-423,4
-6379,-23,-3399,-282,-2695,-535,4
-5406,-508,-5219,-246,-3403,-552,4
-4908,-502,-6658,-89,-4340,-483,4
-2932,-545,-6557,72,-5675,-401,4
-230,-1338,-4679,150,-7153,-270,4
2065,-2007,-393,143,-8516,12,4
2896,-3668,5210,127,-9509,408,4
3347,-4187,15010,108,-9687,736,4
4364,-2432,25255,-49,-8619,1003,4
4364,-2432,25255,-49,-8619,1003,4
3349,1211,-32000,-544,-6348,1238,4
-532,3451,28955,-1417,-3663,1264,4
-2414,3186,21724,-1824,-1858,774,4
-1762,-165,15702,-1444,-968,179,4
-1549,-2805,14268,-428,-705,-169,4
-1014,-3824,16323,719,-667,-235,4
-870,-2919,18355,1540,-483,-145,4
-1312,-2011,18923,1790,-56,2,4
-1977,-1021,19335,1590,446,173,4
-1977,-1021,19335,1117,955,293,4
-2384,204,19324,1117,955,293,4
-3023,1064,19056,499,1433,260,4
-2757,1501,17309,-126,1846,146,4
-2574,1434,14517,-635,2149,29,4
-2215,628,12190,-956,2324,-9,4
-2137,16,10874,-1037,2415,62,4
-2591,250,10362,-938,2469,163,4
-3391,521,9815,-739,2505,191,4
-3442,577,9623,-463,2557,144,4
-3442,577,9623,-463,2557,144,4
-3583,398,9899,-178,2686,81,4
-3665,177,9836,67,2932,32,4
-3688,-71,9367,246,3193,-10,4
-3863,-247,8465,316,3356,-47,4
-3631,-521,7634,274,3415,-40,4
-3893,-622,6803,171,3413,13,4
-4238,-361,6157,34,3350,65,4
-5647,1109,4791,-551,2771,-287,4
-5589,498,3759,-551,2771,-287,4
-5508,-575,2237,-561,2650,-343,4
-5615,-1296,477,-525,2403,-259,4
-5933,-1257,-457,-456,1955,-79,4
-6374,-509,-716,-322,1419,62,4
-6872,128,-622,-103,965,69,4
-7106,547,-436,130,608,-36,4
-7106,547,-436,263,233,-177,4
-6989,562,-333,224,-205,-288,4
-7128,283,-355,224,-205,-288,4
-7176,-185,-829,53,-696,-356,4
-6995,-479,-2232,-180,-1284,-392,4
-6214,-967,-4790,-322,-2037,-372,4
-5964,-705,-7739,-222,-3000,-287,4
-4802,-102,-8665,-66,-4456,-268,4
-2179,-668,-6528,-21,-6294,-313,4
959,-2122,-2218,9,-8030,-253,4
3512,-3174,2411,161,-9242,64,4
3512,-3174,2411,161,-9242,64,4
4838,-3749,11684,494,-9687,413,4
4052,-3890,22341,828,-8887,783,4
2721,25,31691,996,-6776,1015,4
-616,4425,-31874,678,-3827,904,4
-2689,4565,23974,49,-1369,292,4
-1351,976,16040,-273,-299,-387,4
-1043,-2519,12713,-21,-261,-644,4
-991,-4465,13733,539,-576,-514,4
-991,-4465,15461,1045,-697,-232,4
-1278,-3864,15461,1045,-697,-232,4
-1686,-2228,16041,1172,-469,3,4
-1948,-879,15224,932,-136,193,4
-2675,400,14622,543,153,347,4
-3533,1365,14237,155,385,323,4
-2871,1261,12771,-231,604,144,4
-2559,561,10019,-437,699,32,4
-2477,172,8214,-448,631,26,4
-2553,-15,7792,-328,501,48,4
-2796,-55,8333,-102,362,33,4
-2796,-55,8333,-102,362,33,4
-2757,59,9115,105,258,-1,4
-2455,195,9285,259,263,-18,4
-2566,204,9177,329,342,-16,4
-2632,117,9332,292,391,-29,4
-5180,-644,5795,272,3156,-470,4
-5209,-927,5863,370,3120,-413,4
-5167,-762,5600,347,3078,-318,4
-5290,-813,5050,239,2999,-222,4
-5623,-719,3723,96,2913,-119,4
-5813,-796,1931,21,2769,-49,4
-6325,-656,160,53,2529,-10,4
-6693,-241,-1146,160,2095,-21,4
-6751,-93,-1472,323,1564,-70,4
-6626,-151,-1261,494,1086,-128,4
-6626,-151,-1261,494,725,-175,4
-6579,-29,-827,616,725,-175,4
-6349,59,-826,607,433,-210,4
-6564,-66,-1832,474,86,-241,4
-6571,-434,-3358,305,-375,-267,4
-6424,-764,-4448,216,-961,-276,4
-5779,-1048,-5990,200,-1638,-270,4
-5392,-1049,-8437,321,-2418,-175,4
2323,-1115,-2915,212,-8753,164,4
2323,-1115,-2915,212,-8753,164,4
5296,-2151,964,-178,-10110,475,4
7487,-4392,9473,-530,-11082,872,4
7592,-5678,23101,-750,-10960,1321,4
6470,-2080,-26337,-1039,-8971,1798,4
892,2587,-26337,-1710,-5366,1957,4
-1476,4911,29703,-2239,-2079,1422,4
-1383,2463,16978,-2006,-361,587,4
-1383,2463,16978,-984,-171,-33,4
-959,-1735,12640,-984,-171,-33,4
-1050,-4269,15571,357,-448,-276,4
-752,-4436,19112,1662,-317,-248,4
-1060,-2788,19954,2403,226,-106,4
-1893,-728,19751,2456,853,39,4
-2303,522,19543,1998,1429,96,4
-2519,1099,18958,1295,1969,123,4
-2672,1507,17527,524,2429,51,4
-2578,1686,15203,-101,2716,-54,4
-2670,2152,13482,-494,2816,-178,4
-2670,2152,13482,-494,2816,-178,4
-2626,1934,12809,-758,2888,-307,4
-2269,1196,12367,-889,3017,-363,4
-2474,174,11381,-851,3167,-337,4
-2755,-461,10400,-663,3262,-271,4
-3108,-1243,9421,-401,3294,-175,4
-3024,-1406,9053,-129,3342,-42,4
-3187,-890,8573,92,3486,84,4
-3347,4,8184,225,3648,147,4
-3818,1038,7909,268,3764,104,4
-3818,1038,7909,268,3764,104,4
-4000,1274,7519,221,3853,-26,4
-4226,993,7056,152,4000,-191,4
-4260,323,5493,69,4150,-319,4
-4414,-309,3426,-38,4131,-343,4
-4462,-1039,1299,-121,3909,-301,4
-4865,-1261,-649,-161,3486,-163,4
-5325,-984,-2200,-160,2879,31,4
-5374,-774,-2536,-81,2213,194,4
-5594,-306,-2380,75,1684,299,4
-5594,-306,-2380,75,1684,299,4
-6064,227,-2934,232,1298,316,4
-6296,705,-3366,319,863,242,4
-6355,819,-3419,266,306,124,4
-6514,774,-3506,61,-352,2,4
-7050,659,-3672,-238,-1108,-134,4
-6375,289,-4351,-519,-1935,-291,4
-5796,-178,-6762,-606,-2783,-345,4
-5688,484,-8963,-489,-3909,-357,4
-3139,296,-8855,-433,-5562,-434,4
-3139,296,-8855,-433,-5562,-434,4
236,-1100,-6303,-426,-7478,-412,4
3529,-3248,-491,-499,-9298,-152,4
5741,-5247,4864,-448,-10583,401,4
6384,-5574,16185,-81,-10739,899,4
4955,-2147,29454,364,-9291,1288,4
351,3458,-26691,86,-6259,1390,4
-3126,6069,32342,-477,-2931,755,4
-2310,3188,21020,-929,-778,-287,4
187,-2019,12547,-824,-279,-747,4
187,-2019,12547,-824,-279,-747,4
-535,-4807,12195,-192,-655,-599,4
-976,-4642,15647,581,-954,-315,4
-955,-2770,17527,1103,-692,-128,4
-1697,-1007,16072,1147,-227,1,4
-2361,-61,14786,842,54,61,4
-2376,-44,14112,450,295,92,4
-2865,245,12926,161,540,62,4
-2610,-3,10826,-70,662,-17,4
-2447,-40,8647,-135,609,-54,4
-2447,-40,8647,-135,609,-54,4
-2496,116,8447,-115,426,-73,4
-2234,-23,9686,-75,314,-88,4
-2048,-173,10382,-28,347,-84,4
-1935,-232,9792,24,425,-63,4
-1911,-235,9527,59,409,-15,4
-1910,-200,9875,53,350,42,4
-2015,-246,10319,30,371,79,4
-2141,-311,10437,14,446,94,4
-2200,-384,10505,-36,503,93,4
-2200,-384,10505,-141,570,101,4
-2193,-472,10567,-141,570,101,4
-2149,-568,10315,-274,665,122,4
-2246,-709,9655,-376,728,156,4
-2374,-728,9029,-412,745,194,4
-2493,-684,8518,-400,709,229,4
-4444,1231,12411,43,2729,-502,4
-4444,1231,12411,43,2729,-502,4
-4321,352,10832,-240,3018,-579,4
-4356,-1025,8962,-429,3156,-549,4
-4164,-2148,8038,-457,3136,-395,4
-4557,-2577,7605,-363,3095,-156,4
-4668,-1963,7079,-188,3112,62,4
-5108,-1001,6289,26,3123,224,4
-5533,178,5636,321,3120,284,4
-6014,898,5321,668,3156,204,4
-6313,915,4747,967,3187,29,4
-6313,915,4747,967,3187,29,4
-6320,329,4113,1121,3162,-146,4
-6369,-411,3052,1090,3093,-235,4
-5928,-951,1831,868,2854,-196,4
-6423,-1195,503,532,2456,-41,4
-6742,-872,-593,232,1939,112,4
-6972,-107,-934,41,1412,183,4
-7130,581,-1021,-73,938,161,4
-7194,813,-1079,-138,494,67,4
-7048,412,-1266,-177,83,-40,4
-7048,412,-1266,-177,83,-40,4
-6939,-50,-1465,-186,-299,-105,4
-7147,-234,-2021,-167,-712,-122,4
-7025,-235,-2709,-117,-1229,-143,4
-6460,-205,-3950,-6,-1850,-172,4
-6338,102,-6296,200,-2584,-174,4
-5812,758,-7530,381,-3657,-199,4
-4143,1088,-7280,442,-5090,-288,4
-1763,574,-5509,348,-6658,-376,4
970,-973,-2340,153,-8127,-310,4
970,-973,-2340,153,-9256,0,4
3175,-2215,1405,-25,-9256,0,4
3944,-3804,8537,-168,-9800,356,4
5324,-3491,18537,-138,-9481,724,4
3348,-875,29778,-180,-7955,1091,4
376,4097,-30284,-667,-5299,1174,4
-1568,1639,18600,-1839,-947,120,4
-908,-1781,13721,-1288,-499,-179,4
-1506,-3192,14470,-253,-567,-219,4
-1506,-3192,14470,747,-588,-174,4
-1464,-3390,17188,747,-588,-174,4
-1648,-1878,18873,1303,-250,-100,4
-2153,-708,18774,1356,246,-32,4
-2439,-80,18412,1056,776,0,4
-2531,-51,17678,605,1273,20,4
-2730,287,16845,183,1686,11,4
-2554,464,15086,-180,2004,-28,4
-2443,890,13919,-398,2218,-73,4
-2480,982,13117,-524,2452,-102,4
-2480,982,13117,-577,2751,-119,4
-2413,692,12801,-577,2751,-119,4
-2618,169,12177,-549,3055,-105,4
-3008,108,11370,-427,3289,-75,4
-3462,415,10429,-263,3456,-103,4
-3418,149,9626,-136,3600,-176,4
-3376,-678,8561,-48,3753,-208,4
-3359,-1079,7384,45,3861,-155,4
-3625,-929,6090,119,3842,-51,4
-3869,-524,5295,183,3701,49,4
-3869,-524,5919,249,3545,110,4
-4083,77,5919,249,3545,110,4
-4740,509,5534,236,3499,112,4
-5166,624,4749,158,3469,64,4
-5401,401,3631,73,3349,-2,4
-5544,-106,2315,-8,3160,-58,4
-5752,-382,474,-24,2898,-70,4
-5996,-559,-1103,-8,2488,-38,4
-6137,-738,-2029,31,1919,33,4
-6360,-555,-2224,81,1294,125,4
-6748,-150,-2194,115,689,169,4
-6748,-150,-2194,115,689,169,4
-6809,-86,-1850,114,142,133,4
-6793,-281,-2349,28,-352,84,4
-6647,-453,-3552,-124,-945,50,4
-5698,-939,-6331,-156,-1657,73,4
-6391,77,-9488,79,-2531,109,4
-5373,794,-10268,349,-3916,27,4
-2499,762,-8524,394,-5781,-100,4
1313,-283,-5283,208,-7769,-47,4
4408,-2477,114,-54,-9530,290,4
4408,-2477,114,-54,-9530,290,4
6291,-3200,7263,-165,-10720,720,4
6405,-4195,21102,-12,-10567,1040,4
4790,-841,-30854,139,-8659,1337,4
478,3377,-27078,-231,-5375,1385,4
-1713,5434,30490,-935,-2297,870,4
-942,2660,19932,-1505,-610,147,4
-413,-964,13427,-1319,-221,-196,4
-1680,-2863,12372,-440,-450,-226,4
-1568,-3152,14853,538,-657,-192,4
-1568,-3152,14853,538,-657,-192,4
-1438,-1634,16358,1193,-466,-127,4
-2038,-143,15375,1229,-29,-7,4
-2612,599,13728,904,304,56,4
-2499,865,12934,423,494,91,4
-2959,989,11443,7,599,98,4
-3040,545,9857,-191,580,4,4
-2580,154,8629,-160,475,-68,4
-2524,318,8867,-63,347,-67,4
-2344,455,9763,-61,304,-67,4
-2344,455,9763,-61,304,-67,4
-2013,187,9616,-103,387,-76,4
-2123,-3,9043,-98,433,-61,4
-4132,-334,11459,-97,2614,-566,4
-4436,-908,10295,-207,2773,-500,4
-4728,-1380,9121,-286,2824,-395,4
-4904,-1426,8733,-333,2787,-282,4
-4904,-1426,8733,-333,2787,-282,4
-5166,-917,8675,-394,2742,-182,4
-5464,-546,7907,-434,2773,-124,4
-5414,-128,6945,-414,2817,-115,4
-5766,-40,6259,-329,2766,-142,4
-5854,-425,5661,-175,2694,-167,4
-5950,-932,5692,26,2665,-189,4
-5930,-1318,5401,164,2672,-156,4
-5971,-1630,4845,196,2660,-61,4
-6195,-1543,4195,153,2625,47,4
-6195,-1543,4195,153,2625,47,4
-6381,-1220,3450,39,2488,142,4
-6836,-671,2310,-85,2219,208,4
-7042,-242,1448,-110,1893,200,4
-7137,-75,1020,-20,1590,143,4
-7311,21,429,106,1318,79,4
-7334,-66,104,242,1014,13,4
-7141,-150,80,335,718,-38,4
-6920,-200,13,371,452,-61,4
-6959,-313,-681,352,194,-65,4
-6959,-313,-681,352,194,-65,4
-7256,-495,-2025,334,-92,-74,4
-7043,-684,-3533,343,-565,-73,4
-6849,-732,-3841,405,-1230,-47,4
-6399,-614,-3628,464,-1937,-29,4
-6473,-373,-3407,474,-2624,-53,4
-5207,-476,-3761,408,-3401,-106,4
-4262,-122,-4572,369,-4324,-86,4
-3649,396,-4358,357,-5404,-126,4
-1749,768,-3351,287,-6695,-242,4
-1749,768,-3351,160,-8060,-278,4
1295,136,-571,160,-8060,-278,4
3856,-1082,3172,145,-9252,-37,4
3963,-2761,11863,437,-9929,277,4
4126,-2505,24161,860,-9321,620,4
1788,467,-31708,603,-6910,845,4
-937,3223,31580,144,-3857,778,4
-2008,3681,24722,-393,-1578,341,4
-1039,388,16899,-802,-597,-36,4
-987,-2213,14074,-602,-505,-92,4
-987,-2213,14074,-602,-505,14,4
-1473,-3171,15136,-22,-714,14,4
-1529,-2498,17509,587,-681,113,4
-1877,-1545,17967,886,-267,208,4
-2347,-386,17711,852,221,293,4
-2533,357,17441,633,687,342,4
-2896,866,17224,288,1119,302,4
-2843,695,16057,-89,1439,194,4
-2578,795,14687,-343,1682,100,4
-2266,1213,14082,-484,1958,38,4
-2266,1213,14082,-595,2304,-4,4
-2305,1369,13172,-595,2304,-4,4
-2687,1042,11827,-634,2587,-52,4
-3081,795,11084,-572,2693,-109,4
-3156,461,10789,-450,2734,-156,4
-3460,-906,8557,24,3074,-141,4
-3460,-906,8557,24,3074,-141,4
-3548,-752,7996,91,3097,-81,4
-3780,-372,7872,94,3081,-35,4
-3780,-372,7872,43,3134,-37,4
-4168,338,8390,43,3134,-37,4
-4493,1081,7982,-67,3304,-127,4
-4530,739,7088,-178,3446,-269,4
-4551,-75,6384,-217,3495,-375,4
-4676,-677,5392,-204,3546,-406,4
-4688,-1045,4177,-203,3527,-359,4
-4821,-1316,2709,-219,3370,-237,4
-5050,-1563,982,-194,3107,-60,4
-5444,-1241,-422,-77,2725,125,4
-6126,-922,-1570,96,2233,263,4
-6126,-922,-1570,96,2233,263,4
-6391,-503,-1983,331,1705,315,4
-6521,-131,-1840,560,1211,295,4
-6660,345,-1601,694,762,227,4
-7004,742,-1655,657,320,114,4
-7215,886,-2301,416,-188,-36,4
-6899,262,-4061,89,-844,-191,4
-6089,-295,-7758,-23,-1618,-252,4
-5706,401,-11035,156,-2734,-224,4
-4317,606,-11389,293,-4529,-251,4
-4317,606,-11389,293,-4529,-251,4
-965,20,-8577,299,-6748,-291,4
2250,-1641,-3406,149,-8881,-197,4
5207,-2913,2477,16,-10467,180,4
6419,-5200,11891,78,-11227,561,4
6843,-4200,26633,261,-10286,1014,4
3873,-68,-26337,122,-7482,1341,4
-156,4743,-30161,-793,-3745,1403,4
-2035,4865,23711,-1536,-1036,780,4
-1085,1237,12918,-1701,-128,102,4
-1085,1237,12918,-1701,-128,102,4
-959,-2329,10234,-1075,-434,-185,4
-1666,-3820,13808,5,-924,-202,4
-1350,-3049,16731,960,-868,-185,4
-1625,-1287,16813,1419,-328,-117,4
-2435,284,15817,1396,133,-68,4
-2787,775,15700,985,409,-75,4
-2484,489,14951,455,689,-69,4
-2776,477,12903,70,944,-64,4
-2455,162,10317,-226,977,-84,4
-4283,133,11129,248,2551,-190,4
-4594,496,10675,101,2651,-218,4
-4594,496,10675,101,2651,-218,4
-4908,707,10470,-47,2733,-285,4
-4947,605,10420,-224,2789,-353,4
-5144,82,9873,-419,2839,-394,4
-5032,-684,8977,-608,2897,-380,4
-5052,-1604,7484,-740,2921,-282,4
-5124,-1623,6900,-771,2858,-116,4
-5553,-1263,6074,-733,2773,37,4
-5833,-473,5686,-566,2714,98,4
-6118,17,5077,-322,2712,76,4
-6118,17,5077,-322,2712,-8,4
-6205,276,4485,-6,2723,-8,4
-6401,404,4092,296,2718,-120,4
-6460,-35,3779,500,2665,-214,4
-6331,-760,2870,551,2563,-268,4
-6178,-1225,2263,510,2436,-243,4
-6149,-1402,1330,350,2217,-129,4
-6373,-1456,454,149,1853,31,4
-6550,-1214,-138,3,1460,167,4
-6680,-776,-879,-17,1127,246,4
-6680,-776,-879,79,822,263,4
-6738,-273,-1417,79,822,263,4
-6891,144,-1603,182,483,228,4
-6953,174,-1702,205,90,160,4
-6964,-46,-1835,119,-361,89,4
-7066,-314,-2243,6,-852,40,4
-7185,-100,-2318,-67,-1373,-24,4
-7128,23,-2842,-182,-2024,-125,4
-6461,-339,-4705,-220,-2825,-204,4
-6509,-265,-6264,-72,-3717,-269,4
-6509,-265,-6264,212,-4814,-388,4
-4624,467,-6983,212,-4814,-388,4
-2250,172,-6135,464,-6142,-483,4
372,-290,-4118,673,-7487,-439,4
2341,-915,192,841,-8641,-252,4
4333,-2342,4564,993,-9368,87,4
4920,-4183,12500,1160,-9505,532,4
4969,-3257,21967,1289,-8693,1043,4
2817,346,31585,1029,-6772,1400,4
-392,4054,31950,301,-4168,1394,4
-392,4054,26110,-466,-1990,940,4
-2208,6169,26110,-466,-1990,940,4
-2513,3617,17955,-908,-806,226,4
-1366,-104,15154,-769,-671,-290,4
-836,-2740,16759,-54,-882,-447,4
-547,-3187,19448,728,-772,-342,4
-988,-2111,20512,1145,-262,-150,4
-1591,-891,20541,1097,353,58,4
-2295,308,19688,773,987,207,4
-2629,602,18616,280,1496,219,4
-2195,497,16283,-252,1847,209,4
-2195,497,16283,-252,1847,209,4
-2159,733,13735,-640,2019,225,4
-2341,952,12174,-834,2058,225,4
-2477,1010,11533,-882,2119,194,4
-2809,1146,11111,-796,2246,139,4
-3238,1128,10881,-587,2368,34,4
-3129,903,11306,-319,2525,-75,4
-3175,521,11344,-56,2799,-150,4
-3077,61,10400,148,3122,-174,4
-3058,-263,9626,293,3381,-158,4
-3058,-263,9626,293,3381,-158,4
-3078,-419,9190,328,3544,-124,4
-3466,-366,8471,250,3614,-87,4
-3756,-187,7288,53,3614,-54,4
-3713,-125,6379,-174,3566,-34,4
-4019,379,6108,-347,3513,-33,4
-4470,809,5895,-470,3462,-80,4
-4944,579,5241,-592,3393,-137,4
-5093,147,4255,-706,3287,-172,4
-4943,-436,2461,-776,3129,-158,4
-4943,-436,2461,-776,3129,-158,4
-5046,-725,1073,-750,2886,-73,4
-5452,-600,-345,-603,2591,40,4
-5856,-421,-1818,-361,2221,116,4
-6101,-312,-2690,-50,1757,150,4
-6384,77,-2983,262,1234,155,4
-6594,594,-2673,480,694,107,4
-6899,1148,-2470,497,128,6,4
-7204,1214,-2708,309,-516,-157,4
-6850,679,-3399,47,-1248,-353,4
-6850,679,-3399,47,-1248,-353,4
-5553,-122,-5863,-85,-1999,-431,4
-5357,95,-9317,-7,-2952,-362,4
-4284,162,-10269,108,-4501,-317,4
-1841,-71,-8445,202,-6445,-341,4
1481,-1109,-3390,273,-8258,-328,4
4671,-2222,719,364,-9593,-108,4
6041,-4121,9471,643,-10383,258,4
6709,-4295,21378,1123,-10037,728,4
4675,-1450,-29565,1202,-7985,1090,4
4675,-1450,-29565,1202,-7985,1090,4
698,3570,-29484,785,-4605,1213,4
-1856,6051,28515,145,-1658,717,4
-1400,3333,17851,-445,-240,16,4
-653,-899,13283,-513,-243,-398,4
-1014,-3650,14319,-13,-764,-410,4
-820,-3522,16910,632,-871,-230,4
-1311,-1566,17461,971,-507,-37,4
-1804,453,16383,888,-72,131,4
-3000,1657,15315,539,224,207,4
-3000,1657,15315,539,427,147,4
-4565,829,12228,87,1782,-450,4
-4229,-184,11854,-74,1923,-530,4
-3901,-565,11776,-165,2112,-503,4
-4153,-588,11397,-244,2351,-410,4
-4374,-473,10455,-321,2566,-315,4
-4741,-673,9261,-371,2700,-234,4
-4790,-937,8145,-357,2730,-161,4
-5053,-929,8013,-295,2681,-91,4
-5362,-841,8072,-211,2668,-31,4
-5367,-488,8121,-121,2720,-4,4
-5636,-488,7920,-62,2819,4,4
-5636,-160,7920,-62,2819,4,4
-5754,145,7134,-12,2935,-29,4
-5888,8,6580,36,2985,-98,4
-6118,-461,5715,65,2980,-157,4
-5955,-904,4741,85,2920,-177,4
-5924,-1322,3994,91,2795,-123,4
-5948,-1420,3324,90,2627,-2,4
-6130,-1202,2977,111,2469,122,4
-6589,-934,1901,152,2323,215,4
-6589,-934,1901,217,2108,257,4
-6636,-399,1329,217,2108,257,4
-7016,-101,655,305,1853,251,4
-7173,209,47,377,1588,198,4
-7186,266,-508,412,1279,116,4
-7267,334,-746,388,908,42,4
-7393,524,-573,288,501,-38,4
-7404,519,-629,108,78,-138,4
-7397,114,-1666,-65,-375,-222,4
-7170,-364,-2535,-125,-884,-283,4
-7170,-364,-2535,-117,-1466,-291,4
-6811,-518,-3069,-117,-1466,-291,4
-6705,-589,-3656,-70,-2127,-285,4
-6344,-581,-4119,47,-2817,-307,4
-5154,-680,-5356,189,-3563,-293,4
-4496,-484,-6399,354,-4458,-284,4
-2855,-32,-5831,499,-5629,-270,4
-417,-221,-3905,495,-6973,-278,4
2000,-1191,-1294,429,-8259,-180,4
4047,-924,2170,369,-9345,133,4
4047,-924,9672,376,-10054,419,4
4365,-2827,9672,611,-9839,617,4
4814,-2373,21250,611,-9839,617,4
4407,74,-29936,541,-8005,742,4
532,3409,-29720,-232,-4723,865,4
-2118,4510,27488,-858,-1897,525,4
-1184,1458,18113,-1130,-496,-67,4
-88,-2244,14620,-740,-309,-308,4
-1033,-3756,16003,138,-623,-216,4
-1001,-3430,19071,1002,-664,-91,4
-1100,-2218,20377,1463,-180,50,4
-1100,-2218,20377,1463,-180,50,4
-1835,-825,19436,1492,498,226,4
-2499,139,18285,1265,1071,344,4
-2898,601,17982,887,1528,362,4
-2700,849,17146,408,1937,316,4
-2736,1479,15448,-25,2258,249,4
-2799,2165,14017,-339,2480,138,4
-2724,2085,12923,-583,2692,3,4
-2670,1472,12411,-760,2924,-103,4
-2560,630,11441,-815,3105,-151,4
-2560,630,11441,-815,3105,-151,4
-2689,-137,10119,-718,3244,-130,4
-2968,-588,8902,-507,3318,-53,4
-3207,-538,8535,-284,3363,31,4
-3294,-214,8545,-132,3448,94,4
-3680,183,8135,-70,3569,109,4
-3790,544,7533,-75,3692,66,4
-3859,790,7158,-122,3793,1,4
-4052,343,6537,-161,3915,-51,4
-4250,211,4856,-164,3999,-100,4
-4250,211,4856,-164,3999,-100,4
-4704,197,3172,-187,3916,-123,4
-4949,233,1874,-173,3639,-121,4
-5178,78,1150,-175,3238,-113,4
-5498,-386,437,-199,2807,-72,4
-5737,-565,-605,-213,2387,-14,4
-6089,-435,-1530,-181,1962,39,4
-6368,-33,-2158,-113,1487,53,4
-6587,368,-2340,-48,937,15,4
-6708,556,-2143,-3,367,-58,4
-6708,556,-2143,23,-167,-147,4
-6606,244,-2023,23,-167,-147,4
-6588,-69,-2106,7,-636,-221,4
-6162,-630,-3735,-50,-1144,-256,4
-5496,-893,-6756,51,-1732,-177,4
-5915,180,-9796,301,-2632,-81,4
-4673,658,-10851,478,-4128,-105,4
-2270,795,-9720,541,-6146,-161,4
732,409,-4778,409,-8294,-226,4
4374,-1429,1703,184,-10043,-116,4
4374,-1429,1703,184,-10043,-116,4
6830,-3591,8382,112,-10977,213,4
7558,-5051,20925,398,-10696,692,4
5849,-2111,-31654,622,-8790,1133,4
1642,2483,-26337,394,-5526,1339,4
-1391,5358,31889,-466,-2129,989,4
-1116,3220,21154,-896,-163,217,4
-223,-363,13158,-764,256,-183,4
-1520,-2666,12480,-44,-223,-254,4
-1570,-3318,16162,781,-626,-190,4
-1570,-3318,16162,781,-400,-74,4
-1433,-1416,17897,1213,-400,-74,4
-2206,409,16047,1151,117,43,4
-3456,-1536,10277,-375,2238,-588,4
-3835,-1950,9816,-408,2254,-352,4
-4236,-1591,9755,-398,2279,-116,4
-4759,-835,9640,-366,2380,34,4
-5162,-161,9413,-318,2501,87,4
-5306,3,9111,-268,2598,59,4
-5306,3,9111,-268,2598,59,4
-5410,-203,8487,-191,2673,20,4
-5352,-346,8154,-84,2768,-3,4
-5614,-668,7307,10,2831,7,4
-5712,-580,6478,95,2820,25,4
-5935,-123,5974,183,2750,26,4
-6205,-263,5570,260,2663,7,4
-6161,-602,5357,318,2588,-3,4
-6385,-870,5168,318,2529,14,4
-6374,-984,4407,248,2463,69,4
-6374,-984,4407,161,2320,125,4
-6513,-668,3442,161,2320,125,4
-6745,31,2884,109,2084,164,4
-7040,601,2483,155,1855,138,4
-7301,878,1953,287,1686,39,4
-7310,832,2021,457,1520,-99,4
-7189,508,1913,543,1373,-215,4
-7076,57,1239,530,1226,-288,4
-6952,-136,407,433,1006,-306,4
-7014,-119,31,284,680,-281,4
-7014,-119,31,130,302,-271,4
-7075,84,-16,130,302,-271,4
-7159,49,-4,5,-81,-300,4
-7210,-361,-514,-70,-440,-328,4
-6904,-798,-1261,-112,-831,-320,4
-6930,-669,-1842,-137,-1289,-304,4
-6608,-984,-3572,-136,-1875,-307,4
-6071,-966,-6242,62,-2558,-277,4
-5344,-416,-8736,464,-3491,-233,4
-3608,-52,-9741,879,-4783,-178,4
-3608,-52,-8183,1198,-6468,-109,4
-1000,262,-8183,1198,-6468,-109,4
1314,199,-3822,1186,-8283,-4,4
3705,-1216,1360,839,-9801,207,4
6269,-3395,9428,455,-10865,560,4
6943,-5469,20743,-4,-10635,1040,4
6212,-2934,32499,-496,-8768,1642,4
1464,2508,-29702,-1153,-5671,1947,4
-1593,6244,29295,-1802,-2751,1609,4
-3262,4442,18513,-2064,-1069,745,4
-1345,-45,12904,-1367,-755,-65,4
-1345,-45,12904,-1367,-755,-65,4
-1137,-3336,15311,0,-957,-391,4
-766,-4345,17925,1367,-816,-379,4
-634,-2782,19576,2286,-185,-248,4
-1384,-952,18815,2554,497,-20,4
-2563,539,18613,2225,952,122,4
-2380,1094,18559,1539,1320,161,4
-3093,1738,17857,833,1726,132,4
-2822,1825,15766,166,2046,12,4
-2340,1633,13715,-354,2191,-75,4
-2340,1633,13715,-354,2191,-75,4
-2137,1428,12805,-670,2255,-88,4
-2897,2250,12508,-894,2624,-85,4
-3384,454,10932,-307,3058,-214,4
-3677,39,10040,-91,3397,-234,4
-3291,-338,8707,65,3659,-256,4
-3291,-338,8707,65,3659,-256,4
-3276,-905,7284,149,3792,-201,4
-3647,-801,6195,197,3818,-70,4
-3912,-77,5692,214,3748,15,4
-4494,293,5871,138,3618,43,4
-4822,434,5560,0,3527,13,4
-4991,720,5020,-167,3459,-47,4
-5127,553,3693,-333,3356,-91,4
-5089,-61,1989,-420,3158,-111,4
-5286,-538,242,-415,2874,-70,4
-5286,-538,242,-415,2874,-70,4
-5364,-649,-1143,-310,2502,26,4
-5704,-601,-2139,-127,2065,135,4
-5952,-270,-2664,116,1597,206,4
-6240,202,-2566,343,1102,225,4
-6411,605,-2200,494,609,182,4
-6497,736,-1785,530,135,100,4
-6711,599,-2248,387,-367,3,4
-6695,186,-3567,159,-1007,-79,4
-5635,-232,-5955,40,-1792,-106,4
-5635,-232,-5955,40,-1792,-106,4
-5593,305,-8226,81,-2742,-83,4
-4636,1118,-9261,198,-4112,-131,4
-2333,62,-8274,178,-5887,-209,4
62,208,-5099,54,-7803,-207,4
2658,-984,-563,-90,-9465,-87,4
5385,-1383,6736,-4,-10688,124,4
6929,-2559,19208,210,-10739,417,4
4835,-64,31753,-37,-8941,804,4
636,2364,-30107,-380,-5748,896,4
636,2364,-30107,-380,-5748,502,4
-1452,3978,29328,-777,-2629,502,4
-1040,1907,20001,-982,-842,-76,4
113,-1627,14411,-747,-589,-392,4
-1143,-3694,15756,-50,-1004,-351,4
-2478,-2587,21933,353,-1511,-354,4
2147,-3639,23072,565,-1258,-218,4
-558,-1836,17862,1134,343,282,4
-4133,818,12470,1361,1282,472,4
-3434,1396,11424,935,1001,384,4
-3434,1396,11424,401,715,256,4
-4869,1220,12742,351,2563,-501,4
-4462,-117,11381,248,2842,-622,4
-4139,-1385,9949,139,2971,-560,4
-4195,-1822,8951,-3,2948,-357,4
-4683,-1503,8568,-222,2851,-125,4
-5223,-841,8344,-414,2743,32,4
-5434,220,8305,-584,2688,94,4
-5830,595,7885,-705,2676,61,4
-6092,287,6966,-728,2675,-25,4
-6092,287,6966,-728,2675,-25,4
-5994,-106,6224,-648,2656,-115,4
-5873,-372,6301,-501,2618,-160,4
-5891,-658,6482,-363,2635,-154,4
-6223,-917,5464,-248,2697,-143,4
-6216,-1049,4046,-139,2686,-119,4
-6317,-1061,2913,-76,2490,-32,4
-6703,-1127,3048,7,2199,32,4
-7058,-1044,2981,23,1968,69,4
-6993,-978,2691,15,1753,74,4
-6993,-978,2691,15,1753,74,4
-6957,-978,2413,-20,1559,99,4
-6982,-742,1775,-44,1392,139,4
-7147,-392,1051,0,1193,153,4
-7286,-166,289,98,965,131,4
-7229,-45,-148,213,713,71,4
-7111,13,-331,296,442,10,4
-7124,55,-704,315,149,-39,4
-7271,11,-1936,287,-197,-91,4
-7018,-174,-2903,280,-671,-131,4
-7018,-174,-2903,315,-1241,-151,4
-6778,-137,-3251,315,-1241,-151,4
-6568,-83,-3659,364,-1844,-185,4
-6099,-141,-5123,475,-2460,-232,4
-5693,41,-7349,679,-3290,-248,4
-4759,697,-7842,899,-4492,-319,4
-2191,551,-7600,1087,-5930,-428,4
436,321,-4947,1182,-7498,-438,4
2925,-1130,-862,1061,-9073,-298,4
4212,-2556,3927,969,-10395,58,4
4212,-2556,3927,1018,-10902,439,4
6240,-4710,14595,1018,-10902,439,4
6769,-4240,27501,963,-9861,849,4
3950,-547,-28559,339,-7125,1331,4
917,3754,-30445,-524,-3877,1456,4
-1422,5045,25453,-1320,-1358,1080,4
-1700,2282,16243,-1549,-293,491,4
-1544,-959,13564,-874,-296,84,4
-2085,-2909,16607,222,-529,-127,4
-996,-2955,18608,1153,-362,-135,4
-996,-2955,18608,1596,180,36,4
-1538,-1250,18963,1596,180,36,4
-2630,342,18632,1565,781,162,4
-3004,958,18132,1247,1347,195,4
-2895,960,17542,777,1850,182,4
-2667,814,15489,243,2213,183,4
-2786,1109,13434,-177,2334,180,4
-2782,1750,12537,-463,2331,137,4
-2746,2226,12564,-673,2379,52,4
-3014,2163,12380,-857,2524,-54,4
-3269,1477,11881,-927,2667,-182,4
-3269,1477,11881,-927,2667,-182,4
-3186,658,11345,-838,2849,-273,4
-3024,26,10621,-627,3078,-295,4
-3123,-740,9806,-403,3315,-251,4
-3170,-862,9117,-216,3505,-163,4
-3495,-591,8682,-80,3637,-74,4
-3725,-214,7847,1,3758,-25,4
-3961,-211,6808,17,3844,1,4
-3943,259,6977,20,3877,9,4
-4594,305,5907,-50,3899,9,4
-4594,305,5907,-50,3899,9,4
-4761,323,4578,-128,3833,-14,4
-5046,254,3615,-227,3646,-34,4
-5227,209,2757,-335,3388,-32,4
-5486,220,1734,-423,3132,-36,4
-5515,83,434,-430,2875,-45,4
-5720,-218,-1073,-374,2562,-31,4
-6195,-256,-2401,-263,2121,-3,4
-6502,-130,-3044,-130,1566,10,4
-6629,308,-2861,-18,933,-9,4
-6629,308,-2861,-18,933,-9,4
-6867,514,-2432,42,310,-78,4
-6932,452,-1913,49,-262,-184,4
-6926,-76,-2287,-23,-782,-271,4
-6964,-593,-3192,-77,-1306,-346,4
-5614,-985,-5448,-42,-1919,-364,4
-5326,-965,-8386,114,-2830,-280,4
-4438,-232,-8933,329,-4225,-176,4
-2264,-277,-7678,475,-5904,-122,4
26,-538,-5198,593,-7580,-37,4
26,-538,-5198,593,-7580,-37,4
2039,-795,-1016,675,-9075,69,4
4566,-1154,4986,871,-10216,272,4
5747,-1776,16460,1177,-10463,510,4
4779,1207,-32190,1131,-9155,692,4
965,4171,-28450,261,-5998,714,4
-2337,4868,31385,-585,-2711,246,4
-1452,1879,20879,-1172,-818,-386,4
491,-2401,14633,-1119,-353,-591,4
-1006,-4387,13933,-498,-658,-362,4
-1006,-4387,13933,-498,-658,-362,4
-1633,-3791,17254,320,-912,-102,4
-1324,-2468,18799,859,-662,19,4
-1935,-1122,16986,1028,-41,135,4
-6331,-212,2227,-169,2276,359,4
-6778,233,1923,-119,2020,350,4
-7061,350,1603,-49,1809,260,4
-7074,325,1148,-37,1574,161,4
-7357,166,607,-51,1302,59,4
-7473,105,133,-91,989,-38,4
-7349,57,-37,-116,624,-114,4
-7349,57,-37,-122,263,-161,4
-7149,-45,94,-122,263,-161,4
-7032,-287,271,-97,-44,-172,4
-7083,-655,-337,-95,-307,-155,4
-7167,-766,-1395,-125,-651,-118,4
-7057,-630,-2210,-185,-1151,-86,4
-7055,-533,-3086,-232,-1780,-100,4
-6366,-656,-4801,-183,-2471,-139,4
-5739,-671,-6878,7,-3294,-177,4
-4890,-217,-7951,289,-4385,-196,4
-2376,-267,-7655,573,-5733,-251,4
422,-145,-5813,708,-7296,-225,4
422,-145,-5813,708,-7296,-225,4
2636,-1071,-1678,657,-8941,-38,4
4363,-2143,3689,687,-10381,309,4
6519,-4454,15025,993,-10903,657,4
5562,-3116,29109,1142,-9585,1041,4
2121,1375,-29344,841,-6535,1342,4
-2203,6223,-32435,313,-3186,1147,4
-3456,6305,23029,-406,-1008,294,4
-1915,1938,15574,-744,-397,-486,4
-1915,1938,15574,-744,-397,-486,4
-1039,-2532,14163,-407,-671,-741,4
-908,-4465,17514,390,-875,-584,4
-805,-3611,19379,1124,-570,-266,4
-1543,-1470,19641,1418,70,61,4
-2754,683,18782,1260,700,286,4
-3528,1381,18296,790,1168,276,4
-3256,1152,17517,197,1554,169,4
-2739,1308,16152,-316,1891,94,4
-2894,1596,14191,-680,2131,19,4
-2894,1596,14191,-680,2131,19,4
-2706,1477,12764,-879,2317,-78,4
-2367,1434,12585,-943,2529,-145,4
-2806,1021,11846,-928,2758,-177,4
-3042,501,10954,-824,2899,-210,4
-3145,-161,10231,-656,2938,-215,4
-3111,-498,9631,-445,2982,-159,4
-3062,-774,8731,-255,3100,-69,4
-3251,-689,8176,-105,3194,18,4
-3735,202,8681,-36,3241,67,4
-3735,202,8681,-36,3241,67,4
-4181,1225,8388,-237,3555,-119,4
-4685,-701,1904,-566,3605,-132,4
-4685,-701,1904,-566,3605,-132,4
-5014,-677,764,-447,3246,-14,4
-5483,-568,-122,-273,2827,89,4
-5717,-430,-424,-45,2414,158,4
-5717,-430,-424,-45,2414,158,4
-5849,-220,-1007,199,2052,199,4
-6228,-32,-1643,433,1687,197,4
-6346,282,-1804,619,1257,156,4
-6539,708,-1674,695,775,86,4
-6865,1091,-1502,623,255,-27,4
-7262,1197,-1800,422,-258,-209,4
-7014,494,-3084,131,-916,-375,4
-5765,-506,-5481,0,-1659,-440,4
-5562,-220,-8908,195,-2456,-350,4
-5562,-220,-8908,195,-2456,-280,4
-5185,661,-11370,487,-3811,-280,4
-2422,683,-9719,631,-5836,-318,4
1211,-309,-5010,562,-7976,-295,4
4357,-2255,236,455,-9724,-53,4
5595,-4305,7615,541,-10869,351,4
6783,-5464,21815,864,-10859,769,4
5849,-2989,-30559,858,-8763,1214,4
1396,1873,-26690,588,-5198,1508,4
-2208,7533,32721,-86,-1951,1119,4
-2208,7533,32721,-906,-96,268,4
-2342,5827,21052,-906,-96,268,4
-1263,1008,12770,-1050,271,-382,4
-1777,-2947,12008,-403,-263,-564,4
-1785,-3927,15467,527,-605,-431,4
-1564,-2050,17310,1158,-379,-190,4
-2635,87,16551,1189,119,9,4
-3341,1160,14776,808,481,89,4
-3198,1093,13677,320,689,105,4
-2734,660,12330,-106,866,111,4
-2734,660,12330,-370,938,154,4
-2719,315,9463,-370,938,154,4
-2949,416,6848,-381,788,185,4
-3299,646,6646,-249,525,168,4
-3175,593,8057,-97,332,98,4
-2801,329,9183,33,329,34,4
-2833,326,9364,141,438,3,4
-2810,494,9579,172,547,-36,4
-2599,486,9934,118,668,-69,4
-2517,520,9979,12,827,-87,4
-2517,520,9245,-108,946,-119,4
-2490,313,9245,-108,946,-119,4
-2501,-132,8528,-218,919,-137,4
-2270,-417,8206,-313,786,-94,4
-2449,-720,8025,-389,632,-14,4
-2596,-839,8041,-430,474,72,4
-2767,-942,8288,-442,327,158,4
-2907,-894,8550,-414,222,252,4
-3011,-768,8801,-346,192,330,4
-5417,-1136,9223,-431,2246,-346,4
-5776,-1068,9192,-343,2386,-254,4
-5686,-740,8537,-261,2560,-209,4
-5761,-608,7783,-199,2652,-182,4
-5807,-660,7518,-158,2657,-147,4
-6120,-575,7176,-142,2656,-126,4
-6173,-769,6382,-158,2656,-113,4
-6254,-943,5972,-160,2610,-69,4
-6254,-943,5972,-160,2610,-69,4
-6208,-769,5684,-198,2543,-2,4
-6591,-757,4604,-236,2459,60,4
-6581,-595,3895,-226,2341,113,4
-6819,-448,3279,-232,2211,145,4
-6904,-484,2560,-241,2058,151,4
-7075,-528,1805,-242,1877,155,4
-7050,-492,1451,-224,1654,156,4
-7171,-345,1113,-184,1438,151,4
-7185,-132,601,-114,1236,127,4
-7185,-132,601,-114,1236,127,4
-7179,-172,113,-37,1026,92,4
-7220,-13,-232,29,771,69,4
-7244,124,-266,73,469,19,4
-7345,190,-178,26,126,-43,4
-7284,-180,-394,-85,-251,-96,4
-7357,-563,-1043,-171,-640,-113,4
-7317,-580,-1489,-207,-1095,-109,4
-7494,-348,-2059,-251,-1653,-130,4
-7222,-662,-3629,-257,-2319,-208,4
-7222,-662,-3629,-257,-2319,-208,4
-6278,-813,-5551,-86,-3087,-273,4
-5840,-532,-6728,218,-4024,-306,4
-3460,-364,-6832,574,-5188,-295,4
-1235,-248,-5432,905,-6477,-244,4
799,-479,-3006,1164,-7800,-96,4
2018,-969,333,1247,-8954,186,4
3542,-507,6698,1326,-9810,461,4
4555,-1688,17192,1417,-9900,586,4
3249,1653,29726,1092,-8568,776,4
3249,1653,29726,1092,-8568,776,4
-260,3950,-30634,339,-5846,701,4
-1701,3820,29747,-563,-2921,244,4
-1006,857,20531,-979,-974,-185,4
-466,-2610,14593,-766,-342,-252,4
-1835,-3891,14763,-40,-563,-47,4
-1941,-3029,17241,732,-725,180,4
-2005,-1339,18594,1161,-408,288,4
-2507,-55,17551,1260,150,337,4
-3187,910,17289,1109,630,376,4
-3187,910,17289,1109,630,376,4
-3488,1448,17747,767,1081,299,4
-3582,1434,17303,303,1561,143,4
-3028,1625,16212,-95,1964,7,4
-2758,1781,14496,-436,2269,-83,4
-2445,1867,13611,-674,2527,-139,4
-2545,1886,12820,-837,2804,-157,4
-3136,1168,11576,-915,2965,-186,4
-3375,334,10224,-872,2940,-208,4
-3203,-345,9572,-731,2864,-191,4
-3203,-345,9572,-731,2864,-191,4
-3303,-708,9180,-575,2868,-96,4
-3298,-394,9286,-442,2998,17,4
-3725,367,9735,-363,3223,62,4
-4224,910,9384,-330,3511,1,4
-4301,616,8044,-309,3794,-127,4
-3998,-44,6343,-266,3974,-208,4
-4321,-535,5330,-202,3962,-197,4
-4448,-790,4765,-200,3790,-142,4
-4951,-476,4022,-319,3519,-67,4
-4951,-476,4022,-510,3181,-6,4
-5284,-495,2462,-510,3181,-6,4
-5374,-744,1189,-616,2827,62,4
-5655,-778,53,-590,2463,148,4
-5943,-419,-764,-455,2076,208,4
-6303,-112,-1219,-282,1642,226,4
-6319,153,-955,-95,1188,199,4
-6423,349,-486,54,809,145,4
-6747,514,-771,142,496,64,4
-6952,831,-1398,202,162,-62,4
-6952,831,-1398,254,-271,-215,4
-7099,709,-2173,254,-271,-215,4
-7567,685,-3269,339,-817,-402,4
-6064,-95,-4835,523,-1525,-554,4
-5356,-106,-7292,813,-2389,-489,4
-5313,660,-9085,1010,-3695,-331,4
-3390,685,-7969,942,-5581,-289,4
-82,-516,-4258,621,-7624,-265,4
2657,-2147,425,194,-9304,-72,4
3961,-3169,6753,18,-10439,243,4
3961,-3169,16297,88,-10384,541,4
5525,-5581,16297,88,-10384,541,4
5550,-4514,27777,468,-8914,982,4
2079,113,-29514,477,-6087,1357,4
-1481,4859,-32659,217,-2891,1225,4
-2039,5085,23204,-218,-635,470,4
-1098,1241,14469,-263,210,-175,4
-1307,-2025,11350,177,-20,-361,4
-1878,-3270,13922,785,-536,-276,4
-1531,-2148,16612,1288,-549,-123,4
-2003,-500,16250,1362,-86,53,4
-2003,-500,16250,1362,-86,53,4
-2891,1061,14500,1029,305,185,4
-3078,1891,13783,512,482,237,4
-3048,1570,13314,-101,582,208,4
-2774,1077,11075,-558,668,199,4
-5473,-679,5306,-256,3238,53,4
-5819,-983,3961,-285,3150,103,4
-5916,-1107,2702,-276,2945,155,4
-6045,-1071,2130,-216,2676,222,4
-6045,-1071,2130,-216,2676,222,4
-6153,-825,1653,-100,2403,298,4
-6397,-244,2324,88,2181,342,4
-6897,-4,1817,232,2048,331,4
-6996,65,780,342,1907,260,4
-7144,167,-187,376,1659,193,4
-7332,449,-693,307,1249,130,4
-7408,704,-613,185,765,45,4
-7464,789,-366,55,309,-63,4
-7464,789,-366,-62,-66,-178,4
-7398,569,-467,-62,-66,-178,4
-7398,96,-1283,-144,-405,-274,4
-7168,-160,-2451,-177,-825,-329,4
-7147,-137,-3902,-117,-1336,-389,4
-6088,-251,-6823,125,-1974,-426,4
-5729,-33,-9231,502,-2928,-411,4
-5191,591,-9747,965,-4240,-432,4
-2226,369,-8586,1355,-5827,-480,4
376,95,-5486,1539,-7568,-397,4
2579,-595,-419,1458,-9227,-199,4
2579,-595,-419,1458,-9227,-199,4
5888,-1173,4628,1265,-10452,128,4
5315,-4662,13983,1131,-10760,496,4
7127,-2977,26859,1105,-9684,940,4
2949,363,-29247,687,-7090,1395,4
-784,5669,-30090,-72,-3936,1392,4
-3189,7917,26231,-893,-1507,760,4
-2572,3827,16506,-1331,-506,-126,4
-1405,-1018,14182,-947,-597,-599,4
-1166,-3310,16633,17,-833,-612,4
-1166,-3310,16633,878,-607,-439,4
-1077,-2824,18912,878,-607,-439,4
-1398,-1087,18839,1280,7,-233,4
-2472,370,18428,1188,525,-59,4
-2638,1008,18346,786,987,17,4
-2672,744,18086,295,1471,5,4
-2274,716,17069,-150,1938,-13,4
-2042,1007,15150,-432,2367,-14,4
-2029,1324,13828,-594,2709,-47,4
-2065,1061,12756,-687,3004,-72,4
-2065,1061,12756,-687,3004,-72,4
-2348,736,12001,-700,3242,-82,4
-2751,490,11385,-656,3401,-81,4
-3046,-63,9541,-584,3470,-74,4
-3042,-558,8383,-449,3425,-53,4
-2980,-738,8768,-317,3403,33,4
-3250,-527,8738,-261,3517,141,4
-3736,34,8097,-243,3705,184,4
-3818,675,7436,-293,3849,147,4
-3981,445,6673,-387,3926,93,4
-3981,445,6673,-387,3926,93,4
-3968,23,6010,-434,3981,56,4
-4271,-45,4459,-482,4021,72,4
-4817,0,2249,-508,3930,111,4
-5156,161,350,-492,3646,135,4
-5420,203,-703,-408,3206,146,4
-5588,92,-1422,-274,2739,156,4
-5852,204,-2212,-119,2282,162,4
-6151,538,-2658,48,1797,144,4
-6553,953,-2760,136,1263,91,4
-6553,953,-2760,136,1263,91,4
-7042,1265,-2465,149,707,-32,4
-6953,1320,-2047,84,131,-215,4
-7210,593,-2329,-10,-470,-387,4
-6949,21,-3184,-91,-1102,-505,4
-6015,-349,-5775,-18,-1747,-542,4
-6075,137,-9584,239,-2640,-528,4
-4999,479,-11341,582,-4065,-519,4
-1758,190,-9981,906,-6004,-523,4
1712,16,-6842,951,-8131,-401,4
5024,-1312,-813,915,-10241,-119,4
5024,-1312,-813,915,-10241,-119,4
7418,-3759,9233,901,-11636,304,4
8705,-4326,23984,1469,-11701,795,4
5418,-872,-26337,1361,-8965,1215,4
76,6806,-26337,1379,-6197,1227,4
-1771,7911,27728,-298,-1969,605,4
-721,3335,16151,-1488,-159,-181,4
-269,-2447,12135,-1329,-345,-519,4
-1015,-3942,15068,-464,-887,-370,4
-1015,-3942,15068,-464,-761,-210,4
-430,-3389,17365,417,-761,-210,4
-1015,-819,16916,863,-243,-36,4
-2080,786,15223,784,161,106,4
-2554,1356,14266,488,461,156,4
-2475,1033,13317,141,767,164,4
-2539,648,11106,-131,1010,153,4
-2824,477,8792,-236,1017,149,4
-3321,803,7568,-141,736,94,4
-2840,821,8251,-45,486,-23,4
-2840,821,8251,-14,450,-70,4
-2291,492,9153,-14,450,-70,4
-2323,276,9637,-24,498,-37,4
-2425,83,9786,-53,497,-4,4
-2386,104,9986,-72,505,5,4
-2206,172,10017,-122,597,0,4
-2155,59,9761,-200,717,-2,4
-2153,-137,9172,-274,783,8,4
-2243,-306,8584,-337,753,30,4
-2317,-498,8319,-366,660,72,4
-4126,-1491,9692,-58,1863,-93,4
-4482,-867,9663,-22,1912,64,4
-4482,-867,9663,-22,1912,64,4
-4861,-433,9288,-26,1966,153,4
-5105,168,9260,-22,2010,167,4
-5376,492,9381,-28,2074,130,4
-5416,721,9259,-54,2202,53,4
-5448,403,8791,-113,2329,-28,4
-5242,-288,7877,-182,2400,-42,4
-5386,-1003,6894,-234,2398,42,4
-5644,-1148,6386,-251,2326,176,4
-6053,-778,5980,-253,2233,285,4
-6053,-778,5980,-253,2233,285,4
-6405,-215,5539,-231,2130,329,4
-6655,604,5341,-152,2024,305,4
-6658,1055,5733,-18,1940,214,4
-6789,1210,6506,111,1944,71,4
-6866,921,6504,171,2051,-75,4
-6501,429,6005,159,2188,-188,4
-6671,-106,4754,78,2265,-213,4
-6522,-472,3312,-1,2229,-167,4
-6967,-564,1725,-54,2073,-68,4
-6967,-564,1725,-54,2073,-68,4
-7122,-86,524,-89,1726,26,4
-7529,230,564,-58,1299,41,4
-7544,665,818,-14,965,-14,4
-7402,868,850,42,704,-117,4
-7463,849,756,82,466,-217,4
-7348,576,486,102,226,-307,4
-7282,228,71,102,-38,-364,4
-7523,26,-1022,98,-367,-391,4
-7759,31,-2014,95,-837,-417,4
-7759,31,-2014,95,-837,-417,4
-7387,51,-3024,76,-1489,-442,4
-7398,58,-4597,145,-2263,-464,4
-6763,167,-7172,372,-3183,-505,4
-5888,634,-9110,745,-4351,-563,4
-3407,1131,-9218,1052,-5857,-646,4
1,973,-6855,1133,-7685,-699,4
3781,-942,-1562,910,-9511,-593,4
6453,-3065,4572,576,-10786,-123,4
7192,-6911,16642,488,-11022,487,4
7192,-6911,16642,488,-9436,1218,4
7776,-6792,29020,386,-9436,1218,4
4414,-1590,-28258,127,-6473,1889,4
1032,5698,-31556,-619,-3205,1992,4
-1994,7022,23618,-1458,-1064,1326,4
-1866,2487,15121,-1597,-468,441,4
-1209,-2445,13450,-729,-563,-87,4
-1247,-4492,15894,689,-455,-177,4
-1012,-3256,17419,1922,-55,-88,4
-1476,-1028,17284,2483,470,85,4
-1476,-1028,17284,2369,862,218,4
-2484,778,17053,2369,862,218,4
-2920,1502,17307,1794,1149,239,4
-2916,1610,16740,1085,1453,226,4
-3176,1747,15779,422,1700,150,4
-3048,1988,14404,-92,1910,46,4
-2904,2207,13295,-480,2117,-70,4
-2707,2384,12830,-758,2336,-183,4
-2726,2429,12470,-973,2523,-293,4
-2970,1913,11911,-1123,2628,-379,4
-2970,1913,11911,-1147,2704,-417,4
-2873,1032,11274,-1147,2704,-417,4
-2855,190,10472,-1003,2873,-394,4
-3049,-521,9921,-727,3122,-323,4
-3305,-893,9133,-408,3400,-254,4
-3540,-916,8012,-111,3627,-202,4
-3799,-425,6812,103,3747,-152,4
-3986,266,6153,213,3711,-127,4
-4400,524,5831,225,3596,-144,4
-4584,546,5816,212,3516,-208,4
-4936,546,5356,136,3478,-274,4
-4936,470,5356,136,3478,-274,4
-4978,116,4187,-3,3411,-304,4
-5139,-439,2410,-142,3236,-271,4
-5523,-731,465,-211,2927,-169,4
-6058,-527,-1058,-186,2474,-43,4
-6352,-107,-1594,-72,1917,35,4
-6488,430,-1222,129,1407,44,4
-6419,820,-853,345,1028,-17,4
-6531,758,-855,514,704,-105,4
-6513,765,-880,602,365,-169,4
-6513,765,-880,602,365,-169,4
-6827,692,-1097,584,8,-243,4
-6942,508,-2049,407,-506,-302,4
-6204,-156,-4259,222,-1231,-308,4
-6364,-107,-6959,171,-2133,-237,4
-6227,334,-9570,166,-3465,-192,4
-3860,296,-9836,124,-5288,-205,4
-457,-775,-6994,-59,-7450,-163,4
3308,-2944,-1225,-376,-9437,56,4
4931,-4223,5947,-552,-10788,492,4
4931,-4223,5947,-552,-10788,492,4
7769,-5531,20055,-285,-10954,943,4
6099,-2350,-32585,-246,-8982,1402,4
1533,2894,-28325,-395,-5613,1587,4
-2073,6918,30849,-869,-2349,1015,4
-1957,3594,19274,-1241,-512,73,4
33,-1482,12455,-885,-147,-459,4
-550,-4528,12568,98,-438,-419,4
-1280,-4272,15580,1208,-471,-171,4
-1359,-1801,16907,1872,-125,7,4
-1359,-1801,16907,1872,-125,7,4
-6577,-119,1797,-288,2245,194,4
-6945,-142,857,3,2105,178,4
-7013,-296,169,316,1915,149,4
-7013,-296,169,316,1915,149,4
-6930,-531,-154,558,1692,136,4
-6894,-527,-557,668,1440,164,4
-6981,-101,-748,642,1119,208,4
-7146,345,-873,504,742,214,4
-7289,691,-1037,322,348,158,4
-7408,796,-1467,119,-61,59,4
-7590,479,-2266,-102,-560,-42,4
-7573,46,-2624,-288,-1191,-119,4
-7479,23,-2928,-424,-1891,-191,4
-7479,23,-2928,-424,-1891,-191,4
-6848,-714,-4681,-450,-2601,-274,4
-6790,-561,-7334,-216,-3399,-301,4
-5373,-381,-8228,101,-4585,-313,4
-3007,-340,-7721,425,-5956,-268,4
-242,-111,-5784,719,-7411,-182,4
1916,-446,-1483,875,-8795,-54,4
4948,-1158,2924,800,-9845,282,4
5893,-2821,11102,711,-10379,744,4
5374,-1793,23277,756,-9814,1159,4
5374,-1793,23277,756,-9814,1159,4
3135,3269,-29999,466,-7662,1376,4
-1003,6147,-30232,-374,-4492,1058,4
-1768,5235,27372,-1161,-1900,250,4
-244,592,17789,-1371,-535,-339,4
-128,-3348,14110,-867,-340,-406,4
-1060,-4295,16173,59,-602,-212,4
-959,-3247,18861,902,-530,-23,4
-1328,-1371,19658,1264,41,127,4
-2269,105,18602,1197,681,235,4
-2269,105,18602,1197,681,235,4
-2739,784,17962,860,1202,257,4
-2583,1091,17643,456,1700,254,4
-2719,1570,16494,75,2219,211,4
-3117,1767,14370,-202,2629,102,4
-3248,2056,12555,-386,2855,-65,4
-3166,1938,11925,-521,2937,-235,4
-3034,1240,11560,-630,2965,-346,4
-2890,514,10987,-622,3014,-372,4
-3384,-597,8096,-222,3409,-161,4
-3719,-379,7031,-249,3472,-72,4
-3866,-122,6446,-317,3454,-17,4
-4113,291,6425,-394,3420,5,4
-4334,174,6227,-456,3455,-1,4
-4731,59,5073,-469,3558,-34,4
-5268,-19,3426,-449,3560,-75,4
-5268,-19,3426,-449,3560,-113,4
-5429,-169,2065,-383,3390,-113,4
-5605,-468,617,-274,3098,-111,4
-5632,-653,23,-114,2722,-66,4
-5916,-501,-349,36,2313,10,4
-6204,-113,-922,149,1865,97,4
-6472,234,-1042,247,1364,151,4
-6679,463,-911,338,897,153,4
-6812,605,-720,425,499,101,4
-6855,677,-532,429,118,25,4
-6855,677,-532,298,-298,-48,4
-6856,636,-920,298,-298,-48,4
-7112,370,-2044,97,-795,-109,4
-6417,-195,-4234,-20,-1403,-141,4
-6032,-185,-7534,121,-2154,-106,4
-6134,125,-9652,414,-3269,-112,4
-4603,601,-8885,701,-4916,-185,4
-1140,118,-5815,752,-6916,-247,4
1940,-835,-1798,587,-8797,-138,4
4783,-1494,5322,457,-10292,185,4
4783,-1494,5322,560,-10799,598,4
6879,-3024,17686,560,-10799,598,4
5381,-963,32240,658,-9235,986,4
1276,2249,-26976,431,-5905,1096,4
-2663,5747,-32409,-44,-2257,676,4
-2951,3854,22182,-612,-56,-149,4
-842,-370,13747,-808,380,-578,4
-1308,-3239,11839,-521,-137,-445,4
-2262,-3396,14496,95,-662,-147,4
-2088,-1726,16899,618,-573,34,4
-2088,-1726,15974,737,-8,122,4
-2842,-56,15974,737,-8,122,4
-3475,948,13812,547,414,154,4
-3361,1165,12857,221,594,177,4
-3413,717,11783,-102,678,158,4
-3219,175,10261,-320,700,145,4
-3274,111,8817,-340,640,147,4
-3253,600,8276,-252,572,127,4
-3305,1006,8388,-150,560,78,4
-3333,1063,8318,-72,568,-1,4
-3323,929,8126,-1,517,-98,4
-3323,929,8126,-1,517,-98,4
-3181,599,8098,66,402,-175,4
-2937,102,8566,105,298,-194,4
-2733,-220,9054,120,285,-147,4
-2848,-230,9272,94,351,-84,4
-2970,-308,9260,-4,390,-45,4
-2836,-465,9116,-155,373,-7,4
-2654,-668,8974,-293,340,61,4
-2736,-674,8951,-356,335,158,4
-2834,-500,9055,-354,350,238,4
-2834,-500,9055,-354,350,238,4
-2987,-78,9353,-332,370,280,4
-3413,293,9410,-302,431,280,4
-3725,543,9115,-268,492,216,4
-5058,-831,8231,-318,2393,-109,4
-5058,-831,8231,-318,2393,-109,4
-5099,-374,9061,-180,2565,-67,4
-5289,-206,8961,-117,2848,-69,4
-5289,-626,7657,-102,3092,-91,4
-5284,-1423,5911,-112,3173,-60,4
-5375,-1692,4305,-113,3067,53,4
-5735,-1270,3273,-87,2839,177,4
-6252,-662,2993,-26,2560,237,4
-6495,-283,2842,40,2295,236,4
-6508,-21,3219,116,2081,208,4
-6658,-59,3120,185,1979,174,4
-6658,-59,3120,185,1979,174,4
-6605,-382,2238,244,1933,137,4
-6567,-630,1141,245,1800,144,4
-6760,-575,53,197,1486,196,4
-6984,-429,-380,141,1083,243,4
-7166,-130,-417,97,684,241,4
-7255,95,-46,48,296,196,4
-7210,3,17,-24,-58,131,4
-7257,-169,-234,-115,-406,78,4
-7257,-169,-234,-115,-825,49,4
-7320,-401,-1060,-217,-825,49,4
-7074,-491,-1478,-291,-1351,37,4
-6626,-854,-2863,-274,-1933,39,4
-6040,-1032,-5499,-70,-2580,80,4
-5978,-625,-7416,288,-3454,120,4
-4365,-287,-8109,642,-4608,87,4
-1646,-46,-7414,1020,-5982,76,4
169,516,-4394,1215,-7526,160,4
2457,283,-31,1189,-9069,291,4
2457,283,-31,1072,-10261,529,4
4692,-608,7136,1072,-10261,529,4
6390,-793,20350,983,-10354,813,4
4460,1580,-32411,644,-8624,1050,4
836,4621,-29350,-134,-5418,985,4
-2017,5324,28991,-954,-2301,472,4
-1290,1848,19992,-1505,-701,-189,4
118,-2423,15657,-1358,-585,-378,4
-679,-4435,16847,-591,-876,-152,4
-1409,-3860,19384,328,-797,95,4
-1409,-3860,20380,943,-176,229,4
-1496,-1491,20380,943,-176,229,4
-2580,656,19032,1139,551,293,4
-3303,1452,18390,944,1059,225,4
-2888,939,17972,489,1463,152,4
-2600,953,16766,14,1899,119,4
-2827,1101,14687,-360,2243,83,4
-2815,1426,12988,-574,2445,17,4
-2642,1552,12193,-675,2610,-58,4
-2805,1617,11880,-682,2831,-114,4
-3273,1458,10957,-599,3022,-178,4
-3273,1458,10957,-599,3022,-178,4
-3452,856,10022,-436,3092,-251,4
-3768,175,8818,-204,3106,-290,4
-3808,-157,8239,25,3072,-305,4
-3639,-241,8409,180,3032,-293,4
-3695,-422,8459,221,3037,-246,4
-3778,69,8908,183,3091,-199,4
-3999,654,8846,41,3223,-189,4
-4168,406,8002,-150,3381,-221,4
-3920,117,6794,-283,3503,-244,4
-3920,117,6794,-283,3503,-244,4
-4141,-372,6203,-344,3573,-221,4
-4395,-765,5222,-352,3622,-144,4
-4977,-765,3576,-339,3609,-48,4
-5201,-884,1576,-298,3480,26,4
-5196,-567,490,-193,3215,80,4
-5504,-270,-646,-48,2891,132,4
-5809,52,-2078,158,2524,148,4
-6178,290,-3044,435,2102,111,4
-6473,573,-3540,693,1618,47,4
-6473,573,-3540,693,1618,47,4
-6729,669,-3549,845,1046,-39,4
-6796,1040,-2621,872,453,-138,4
-6795,1263,-2070,665,-137,-211,4
-7322,1003,-2940,291,-778,-295,4
-6641,187,-4957,-13,-1512,-369,4
-6427,-186,-7995,-80,-2344,-359,4
-5743,-307,-10512,12,-3557,-321,4
-3834,-93,-10197,78,-5336,-292,4
-447,-345,-6787,26,-7396,-278,4
-447,-345,-6787,-222,-9286,-136,4
2709,-1989,-1544,-222,-9286,-136,4
4356,-3915,4642,-406,-10571,229,4
7131,-4997,15069,-209,-11002,702,4
6104,-2204,28701,-25,-9628,1188,4
2013,2447,-29399,-218,-6709,1314,4
-1336,5592,32417,-774,-3301,855,4
-2670,3678,21231,-1125,-891,11,4
-750,-405,12521,-970,-209,-540,4
-770,-3614,11886,-263,-635,-551,4
-770,-3614,11886,-263,-635,-551,4
-1463,-4210,15623,630,-1064,-340,4
-1214,-2744,18726,1220,-872,-175,4
-1684,-1469,18011,1328,-237,-66,4
-2434,-570,16140,1033,206,48,4
-2715,-205,15448,527,356,183,4
-2944,473,14744,80,507,286,4
-3741,977,14030,-315,697,211,4
-3373,898,12422,-673,814,54,4
-2863,637,11010,-884,885,-59,4
-2863,637,11010,-884,885,-96,4
-2300,228,9829,-959,975,-96,4
-6763,-669,2758,-282,2271,271,4
-6742,-589,1829,-235,2080,281,4
-6772,-15,1395,-125,1844,292,4
-7137,362,1168,51,1643,238,4
-7368,544,564,229,1484,134,4
-7368,544,564,229,1484,134,4
-7478,378,-124,367,1253,23,4
-7465,330,-174,418,922,-62,4
-7368,223,141,369,552,-125,4
-7534,394,769,249,233,-188,4
-7552,230,646,28,-103,-254,4
-7789,-224,9,-212,-506,-285,4
-7636,-489,-185,-436,-974,-308,4
-7531,-532,-502,-659,-1477,-313,4
-7456,-923,-2035,-813,-2027,-329,4
-7456,-923,-2035,-813,-2027,-329,4
-6764,-1371,-4339,-728,-2637,-337,4
-6388,-898,-6411,-401,-3406,-339,4
-4591,-1464,-7176,12,-4503,-346,4
-2464,-1265,-7089,568,-5721,-274,4
-890,-996,-5240,1023,-7079,-134,4
1769,-808,-1612,1334,-8456,5,4
4047,-805,3314,1434,-9547,300,4
21,5454,-31720,-214,-3756,872,4
21,5454,-31720,-214,-3756,872,4
-1990,4420,25030,-1070,-1287,295,4
-880,179,16650,-1455,-303,-191,4
-595,-3437,14569,-1119,-386,-222,4
-1338,-4202,16529,-318,-601,19,4
-1708,-3065,18753,480,-469,205,4
-1895,-1040,18906,888,132,324,4
-2999,423,17589,960,729,409,4
-2999,423,17589,960,729,409,4
-3390,939,16923,768,1149,368,4
-3008,689,16424,448,1491,312,4
-2897,1051,15755,169,1818,244,4
-2980,1641,14786,-18,2101,123,4
-3042,1893,13920,-142,2351,-26,4
-3062,1963,13441,-216,2597,-180,4
-3195,1365,13155,-301,2774,-313,4
-3013,21,12098,-324,2891,-354,4
-2945,-782,10907,-218,3007,-289,4
-2945,-782,10907,-63,3116,-168,4
-2968,-988,10049,-63,3116,-168,4
-3132,-735,9540,31,3236,-35,4
-3529,-272,8554,33,3369,56,4
-3708,203,7777,-2,3460,70,4
-4185,594,7122,-66,3516,36,4
-4102,705,6769,-144,3547,-30,4
-4333,443,6257,-230,3601,-95,4
-4387,165,5343,-290,3679,-142,4
-4444,-147,4013,-350,3704,-139,4
-4444,-147,4013,-371,3621,-84,4
-4697,-445,2348,-371,3621,-84,4
-5034,-610,451,-336,3396,-9,4
-5411,-435,-733,-223,3006,71,4
-5624,117,-1274,-37,2532,124,4
-5899,537,-1442,177,2073,127,4
-6415,745,-1725,381,1641,72,4
-6745,997,-1798,503,1207,-39,4
-6860,1061,-1421,479,698,-158,4
-6984,1038,-845,311,141,-263,4
-6984,1038,-845,81,-400,-373,4
-7233,607,-669,81,-400,-373,4
-7264,37,-1162,-119,-920,-456,4
-6396,-689,-2709,-229,-1469,-457,4
-6240,-1138,-5741,-165,-2101,-358,4
-6235,-783,-9000,98,-2982,-249,4
-4790,-568,-10141,443,-4367,-221,4
-2267,-530,-8082,675,-6235,-208,4
1306,-996,-3406,682,-8092,-103,4
4043,-2395,1390,538,-9655,207,4
5337,-3598,9364,546,-10662,660,4
5337,-3598,9364,546,-10662,660,4
6654,-1728,24634,703,-10302,1031,4
4010,2963,-27562,402,-7824,1205,4
-151,5270,-29609,-391,-4174,954,4
-2152,4358,25180,-966,-1266,223,4
-483,-485,15299,-1133,-240,-346,4
-270,-3919,12960,-651,-494,-323,4
-1136,-4409,15766,192,-834,-31,4
-1275,-2847,18051,908,-690,161,4
-2027,-786,17483,1172,-131,240,4
-2027,-786,17483,1172,-131,240,4
-2861,734,16187,1043,326,273,4
-3203,1508,15299,713,628,259,4
-3102,1226,14407,244,908,169,4
-2925,666,11936,-194,1122,108,4
-2825,275,8961,-445,1116,98,4
-2624,203,6308,-438,935,131,4
-3255,537,5995,-260,643,185,4
-3424,1010,7477,-48,345,176,4
-3237,985,8964,116,229,116,4
-3237,985,8964,116,229,116,4
-3148,1016,9241,233,314,47,4
-3005,954,9186,293,461,-20,4
-2780,823,9443,266,566,-65,4
-2700,567,9714,150,646,-97,4
-2624,281,9641,17,701,-123,4
-2587,25,9250,-98,740,-130,4
-2504,-143,8861,-188,756,-100,4
-2504,-318,8548,-255,714,-34,4
-2736,-605,8481,-310,605,50,4
-2736,-605,8481,-310,605,50,4
-7130,-638,205,-222,1376,212,4
-7149,-461,195,-222,1376,212,4
-7198,-323,34,-11,1116,182,4
-7185,-56,-8,174,877,143,4
-7282,-13,-124,291,642,97,4
-7298,64,-229,342,389,52,4
-7317,183,-411,307,115,-9,4
-7454,113,-1493,188,-223,-65,4
-7306,-77,-2392,78,-702,-117,4
-6995,-214,-3079,-17,-1285,-144,4
-6995,-214,-4590,-47,-1937,-152,4
-6672,-380,-4590,-47,-1937,-152,4
-6235,-547,-6975,94,-2705,-139,4
-5527,-427,-8979,389,-3728,-127,4
-4378,-171,-9403,767,-5025,-121,4
-1445,-191,-8359,1153,-6640,-141,4
1302,409,-4194,1373,-8399,-95,4
4890,-863,922,1357,-9988,89,4
7067,-2256,8977,1241,-11140,567,4
7314,-3237,24912,1358,-11012,1056,4
4828,1333,-27311,1080,-8651,1450,4
4828,1333,-27311,1080,-8651,1450,4
-39,5425,-26561,216,-4851,1278,4
-2840,5514,28398,-660,-1692,486,4
-912,1092,18443,-1130,-484,-240,4
66,-3382,15394,-787,-653,-302,4
-796,-4621,18205,100,-856,-1,4
-1146,-3229,20214,959,-463,251,4
-1975,-661,19069,1434,282,406,4
-3494,1378,17629,1463,789,470,4
-3656,1834,17889,1091,1122,357,4
-3656,1834,17889,1091,1122,357,4
-3022,1345,17447,547,1537,257,4
-3078,1186,15823,38,1956,205,4
-3129,1379,13696,-300,2222,156,4
-3081,2087,12692,-490,2356,53,4
-3113,2075,11825,-607,2484,-82,4
-2932,1810,11193,-640,2613,-190,4
-2858,1447,10930,-594,2704,-233,4
-2994,667,10309,-477,2798,-214,4
-3317,172,9138,-262,2916,-166,4
-3317,172,9138,-262,2916,-166,4
-3615,2,8702,-12,3025,-124,4
-3602,66,8809,151,3131,-81,4
-3895,273,8731,194,3260,-57,4
-4059,524,8243,141,3414,-80,4
-3966,696,7990,-12,3559,-124,4
-4293,441,6971,-235,3654,-147,4
-4302,294,5624,-404,3653,-165,4
-4296,348,4908,-511,3568,-149,4
-4805,544,4098,-573,3445,-106,4
-4805,544,4098,-573,3445,-106,4
-4895,820,2943,-584,3305,-80,4
-5172,813,1808,-546,3142,-78,4
-5380,392,928,-456,2932,-70,4
-5538,22,-37,-321,2695,-48,4
-5904,-216,-1039,-218,2403,-3,4
-6339,-32,-1799,-172,2000,42,4
-6827,355,-2311,-220,1463,65,4
-7227,738,-2262,-314,820,31,4
-7445,929,-1562,-389,192,-58,4
-7445,929,-1562,-389,192,-58,4
-7661,1048,-954,-472,-295,-204,4
-7115,344,-1543,-594,-751,-340,4
-6698,-510,-4522,-584,-1262,-351,4
-6496,-442,-8536,-262,-1930,-272,4
-6394,-343,-12772,315,-2988,-210,4
-4967,339,-13505,985,-4742,-206,4
-1226,731,-9604,1425,-6855,-231,4
2293,1159,-2962,1595,-9104,-191,4
4984,1250,5166,1534,-10483,-7,4
4984,1250,11861,1426,-10909,222,4
4521,-5,11861,1426,-10909,222,4
4701,2708,28973,933,-9934,420,4
703,4149,-29862,60,-7119,185,4
-358,2964,32143,-1053,-3745,-287,4
-266,14,22508,-1786,-1347,-649,4
445,-3851,14076,-1870,-576,-628,4
-699,-5088,12537,-1273,-907,-302,4
-1190,-4389,16103,-436,-1249,3,4
-1416,-3270,18278,276,-962,102,4
-1416,-3270,18278,712,-268,113,4
-2006,-2271,17665,712,-268,113,4
-2366,-1289,16504,780,289,139,4
-2630,-648,15169,671,690,210,4
-3247,27,14215,566,1004,230,4
-3217,238,12711,367,1204,130,4
-2720,102,9981,152,1173,72,4
-2474,317,8023,4,945,116,4
-2794,437,7844,-87,629,205,4
-3292,622,8780,-128,378,260,4
-3292,622,8780,-130,297,247,4
-3378,726,9645,-130,297,247,4
-3320,641,9725,-109,378,191,4
-3183,614,9436,-89,519,150,4
-3013,443,9280,-91,654,128,4
-2787,251,9093,-116,761,119,4
-2794,145,8666,-145,787,108,4
-2717,-144,8273,-182,707,105,4
-2641,-360,8269,-211,589,137,4
-2726,-436,8411,-228,499,193,4
-3036,-421,8340,-232,424,241,4
-3036,-421,8340,-232,321,262,4
-3310,-363,8415,-237,321,262,4
-5243,-1217,8280,-551,2898,-267,4
-5234,-1649,7046,-560,2879,-175,4
-5234,-1649,7046,-560,2879,-175,4
-5285,-1762,6491,-528,2756,-34,4
-5420,-1456,6573,-465,2593,122,4
-5850,-1063,6803,-349,2511,229,4
-6247,-897,5816,-178,2578,260,4
-6248,-710,4930,48,2663,227,4
-6312,-697,4478,187,2650,207,4
-6610,-876,3944,262,2547,195,4
-6891,-886,3460,257,2432,182,4
-6990,-1024,2238,187,2246,174,4
-6990,-1024,2238,187,2246,174,4
-7089,-1182,1475,97,1933,216,4
-7174,-940,1262,31,1596,271,4
-7205,-392,1703,-2,1287,289,4
-7350,71,2201,-30,1072,252,4
-7450,256,1721,-53,956,171,4
-7385,215,1028,-59,847,69,4
-7341,120,300,-53,679,-11,4
-7357,25,-270,-21,431,-74,4
-7201,-52,-451,39,159,-124,4
-7201,-52,-451,39,159,-124,4
-7313,-112,-1032,113,-111,-154,4
-7634,-276,-2289,187,-468,-172,4
-7402,-247,-2583,264,-1001,-186,4
-7652,-116,-2858,342,-1555,-218,4
-7511,57,-3572,399,-2193,-302,4
-6701,-484,-4961,494,-2926,-392,4
-5763,-229,-6319,634,-3831,-422,4
-4773,177,-6824,814,-4988,-427,4
-2626,446,-5206,942,-6375,-480,4
-2626,446,-5206,942,-6375,-493,4
165,53,-2973,1013,-7736,-493,4
2847,-1262,617,1070,-8860,-329,4
4518,-2459,4996,1177,-9605,62,4
5631,-3750,13574,1499,-9784,571,4
4687,-1713,25345,1672,-8844,1078,4
1780,2544,-31387,1480,-6564,1261,4
-314,5309,32422,754,-3569,891,4
-1459,4661,23858,17,-1273,268,4
-1092,961,15433,-405,-411,-137,4
-1092,961,15433,-171,-661,-180,4
-978,-2037,13386,-171,-661,-180,4
-1592,-2475,17077,427,-1019,-55,4
-1562,-1513,19410,895,-858,50,4
-1573,-266,18764,1057,-244,117,4
-2203,1135,17199,962,306,243,4
-3147,1780,17350,606,638,265,4
-2965,1692,17316,166,978,192,4
-2962,1512,16427,-211,1364,102,4
-2915,1469,14868,-445,1690,20,4
-2915,1469,14868,-591,1969,-67,4
-2571,1634,13849,-591,1969,-67,4
-2336,1448,12995,-695,2255,-124,4
-2334,1176,12023,-750,2482,-142,4
-2496,1440,11852,-739,2626,-156,4
-3078,1567,11529,-728,2748,-198,4
-2924,1052,11107,-726,2879,-276,4
-2662,124,10297,-660,3089,-291,4
-2790,-521,9702,-555,3337,-221,4
-3218,-1202,8451,-486,3505,-100,4
-3218,-1202,7385,-436,3536,25,4
-3288,-1377,7385,-436,3536,25,4
-3511,-1168,6836,-423,3495,163,4
-3621,-325,7140,-442,3468,282,4
-3962,211,7451,-525,3508,329,4
-4334,525,6873,-613,3647,309,4
-4679,678,5268,-659,3787,235,4
-4979,574,3394,-651,3786,158,4
-4980,440,1919,-591,3596,93,4
-5298,537,1256,-502,3299,58,4
-5655,212,358,-406,2982,48,4
-5655,212,358,-406,2982,48,4
-5952,27,-574,-290,2639,46,4
-6461,-58,-1628,-201,2199,88,4
-6945,102,-2032,-160,1621,110,4
-7180,302,-1874,-164,966,78,4
-7209,407,-1288,-192,341,-4,4
-6994,135,-841,-207,-175,-95,4
-7030,-80,-960,-216,-574,-156,4
-7250,-83,-1864,-282,-1019,-200,4
-6939,-461,-3114,-352,-1637,-240,4
-6939,-461,-3114,-352,-1637,-240,4
-6525,-740,-5783,-252,-2359,-256,4
-6413,-87,-8283,15,-3360,-282,4
-4846,214,-8585,301,-4784,-341,4
-2439,581,-6315,512,-6525,-399,4
635,-75,-2224,660,-8194,-444,4
3265,-920,2681,885,-9399,-341,4
5411,-1643,10593,1184,-9868,-62,4
5193,-1665,22302,1513,-9188,294,4
2140,2059,-32727,1416,-7144,527,4
2140,2059,-32727,1416,-7144,527,4
-1067,4844,-30732,822,-4154,358,4
-2843,4261,28025,58,-1440,-300,4
-845,401,19258,-634,-33,-848,4
-138,-3377,13362,-777,159,-801,4
-1089,-4470,12777,-426,-211,-356,4
-2001,-3732,14819,60,-525,30,4
-2457,-1689,16457,398,-342,180,4
-3126,-288,15387,414,98,217,4
-3323,325,13436,185,393,216,4
-3323,325,13436,185,393,216,4
-4549,-623,10348,-459,2585,-229,4
-4804,-984,9542,-538,2582,-189,4
-5004,-1156,8755,-545,2559,-146,4
-5004,-1156,8755,-545,2559,-146,4
-4947,-1479,8350,-483,2533,-87,4
-5027,-1423,8221,-332,2554,0,4
-5219,-1257,7740,-144,2640,83,4
-5426,-1148,6847,69,2737,131,4
-5552,-1097,6452,281,2772,168,4
-5645,-997,5816,450,2787,210,4
-5678,-796,5863,587,2783,224,4
-5894,-640,5911,632,2824,234,4
-6142,-607,4920,579,2867,237,4
-6142,-607,4920,579,2867,237,4
-6373,-684,3644,497,2846,247,4
-6480,-521,2421,369,2653,281,4
-6836,-429,1974,232,2286,309,4
-6987,-185,1891,130,1924,319,4
-6987,157,2292,108,1679,282,4
-7130,281,1945,119,1571,219,4
-7184,224,1026,154,1498,136,4
-7197,98,-210,183,1339,61,4
-6984,-104,-1344,208,1054,21,4
-6984,-104,-1344,208,1054,21,4
-6770,-206,-1773,262,694,23,4
-6702,22,-1802,323,326,60,4
-6841,110,-1765,400,1,74,4
-7191,248,-2835,401,-340,71,4
-7336,14,-3865,356,-896,47,4
-7269,47,-3999,299,-1616,34,4
-6910,-167,-4003,277,-2337,-21,4
-5795,-668,-4746,301,-3047,-34,4
-4862,-586,-5539,399,-3856,47,4
-4862,-586,-5539,399,-3856,47,4
-3974,-253,-5568,485,-4851,133,4
-2513,-95,-4874,591,-6016,176,4
-47,-281,-2934,687,-7263,232,4
2544,-1028,259,719,-8466,436,4
4890,-1240,5326,798,-9395,894,4
-3007,8749,32277,853,-3017,986,4
-3007,8749,32277,853,-3017,986,4
-3614,7572,23516,98,-924,26,4
-1459,2897,16849,-555,-414,-584,4
-776,-1264,15972,-669,-745,-584,4
-1150,-2711,18400,-366,-993,-277,4
-1314,-1671,20669,64,-644,2,4
-1872,49,20377,304,88,207,4
-2907,1390,19086,194,736,312,4
-3128,1377,17679,-182,1163,333,4
-3300,1056,16304,-494,1526,328,4
-3300,1056,16304,-494,1526,288,4
-3164,1055,14390,-604,1895,288,4
-3354,1324,12368,-537,2189,213,4
-3487,2160,11321,-420,2362,101,4
-3732,2944,11048,-364,2459,-73,4
-3753,2945,10431,-373,2513,-287,4
-3702,2374,9961,-378,2512,-479,4
-3444,1859,10088,-346,2498,-584,4
-3326,1368,10182,-309,2561,-621,4
-3534,780,9676,-280,2695,-626,4
-3534,780,9676,-270,2819,-609,4
-3554,299,8949,-270,2819,-609,4
-3565,29,8736,-328,2874,-558,4
-3620,57,8289,-448,2929,-480,4
-3651,-149,7308,-607,3001,-394,4
-3810,-107,7219,-717,3092,-315,4
-4133,-144,6756,-803,3205,-240,4
-4423,-285,6016,-820,3332,-184,4
-4588,-142,4786,-759,3441,-149,4
-5016,-223,3103,-637,3458,-124,4
-5016,-223,3103,-459,3333,-87,4
-5143,-396,1284,-459,3333,-87,4
-5410,-726,-245,-242,3058,-37,4
-5741,-776,-1143,-36,2630,36,4
-6003,-733,-1939,124,2117,125,4
-6423,-324,-2373,239,1544,208,4
-6673,83,-2179,284,926,244,4
-6768,376,-1533,249,340,232,4
-6819,415,-1086,132,-165,186,4
-6806,205,-1189,-55,-658,132,4
-6806,205,-1804,-249,-1196,92,4
-7022,-5,-1804,-249,-1196,92,4
-6429,-293,-3363,-401,-1822,73,4
-5972,-698,-6290,-343,-2585,117,4
-5824,-256,-8047,-139,-3646,178,4
-4169,22,-6516,73,-5084,161,4
-1849,-89,-3400,275,-6591,108,4
683,-324,1016,467,-7883,175,4
2815,4,7006,698,-8759,386,4
3416,593,17918,1063,-8741,612,4
1272,2501,26986,1216,-7247,785,4
1272,2501,26986,1216,-7247,785,4
-2370,4236,31048,971,-4805,542,4
-3420,3796,28919,446,-2402,-92,4
-1842,1300,23125,-224,-775,-566,4
-781,-1289,17169,-722,-120,-576,4
-1396,-2867,13773,-929,-200,-254,4
-2226,-2592,13872,-797,-504,128,4
-2812,-1190,15023,-476,-511,355,4
-3656,186,15232,-187,-150,392,4
-4036,943,14238,-59,299,315,4
-4036,943,14238,-59,299,315,4
-4185,818,12819,-87,632,197,4
-4098,570,11490,-141,822,106,4
-6991,-552,2748,274,2139,58,4
-6963,-619,1706,220,2020,65,4
-6943,-478,635,165,1839,113,4
-6943,-478,635,111,1577,164,4
-7138,-161,-446,111,1577,164,4
-7555,160,-1172,83,1208,178,4
-7523,313,-1168,117,799,128,4
-7398,503,-786,176,437,54,4
-7338,514,-783,205,151,-19,4
-7472,265,-1928,207,-143,-86,4
-7395,8,-3292,230,-573,-117,4
-7039,-108,-4043,290,-1178,-113,4
-6908,51,-4602,353,-1857,-103,4
-6526,4,-6038,447,-2601,-116,4
-6526,4,-6038,447,-2601,-116,4
-5839,58,-7718,572,-3515,-125,4
-5045,311,-8262,683,-4659,-109,4
-2804,374,-7850,762,-6101,-138,4
-80,382,-5892,809,-7648,-158,4
2715,340,-2524,799,-9172,-103,4
4753,-612,2498,614,-10550,106,4
7555,-2567,11893,588,-11517,456,4
8060,-4147,27157,679,-10957,918,4
5072,-775,-26431,921,-8084,1389,4
5072,-775,-26431,921,-8084,1389,4
1380,4914,-27401,679,-3948,1407,4
-1649,6844,27239,26,-840,817,4
-2026,3859,16152,-520,222,152,4
-1318,-565,13380,-470,-273,-180,4
-1579,-2518,16809,95,-864,-180,4
-1200,-2148,19241,745,-715,-63,4
-1761,-131,18873,1103,-32,84,4
-3166,1741,17751,1034,510,168,4
-3302,2000,17335,578,825,149,4
-3302,2000,17335,578,825,149,4
-2912,1361,17075,61,1145,147,4
-3044,1674,16181,-338,1515,149,4
-3007,2076,14391,-589,1843,91,4
-2994,2389,12855,-681,2073,-34,4
-2830,2203,11915,-682,2254,-156,4
-2632,1830,11441,-631,2403,-228,4
-2912,1578,11279,-533,2505,-256,4
-3163,1192,11223,-420,2574,-262,4
-3299,1007,11140,-306,2703,-265,4
-3299,1007,11140,-306,2703,-265,4
-3554,902,10520,-244,2908,-303,4
-3473,543,9894,-275,3087,-324,4
-3284,-5,9433,-395,3200,-291,4
-3466,-102,9196,-579,3292,-228,4
-3991,147,8592,-811,3361,-178,4
-4049,-133,7780,-1039,3405,-159,4
-4000,-318,7768,-1188,3482,-118,4
-4126,-497,6949,-1262,3616,-52,4
-4244,-306,6356,-1202,3752,0,4
-4244,-306,6356,-1202,3752,0,4
-4432,-295,4853,-1075,3860,67,4
-5023,-697,16,-271,3663,262,4
-5370,-777,-1787,41,3422,331,4
-6844,258,-3672,540,1613,405,4
-7160,320,-2679,-399,-1612,-64,4
-6770,-80,-3366,-399,-1612,-64,4
-6135,-477,-5070,-379,-2279,-80,4
-5162,-647,-7294,-162,-3046,-16,4
-4762,-339,-8157,166,-4024,89,4
-2860,88,-7513,455,-5321,154,4
-958,99,-5041,644,-6838,221,4
-958,99,-5041,779,-8283,353,4
1444,-141,-936,779,-8283,353,4
3753,525,3640,982,-9412,599,4
3781,859,12680,1240,-9941,829,4
3042,2819,24826,1387,-9195,899,4
62,5178,-32163,1090,-6902,689,4
-2353,5594,32116,494,-3899,23,4
-1902,3698,24884,-131,-1580,-670,4
-363,-320,17267,-588,-643,-943,4
-171,-3236,14210,-710,-775,-705,4
-171,-3236,14210,-405,-1108,-283,4
-1367,-3567,15708,-405,-1108,-283,4
-1560,-2349,17660,2,-1059,-4,4
-2054,-1333,17276,270,-538,111,4
-2512,-83,15670,324,-28,160,4
-3024,567,14451,167,263,212,4
-3361,983,13737,21,447,171,4
-2980,678,12428,-127,625,62,4
-2504,537,10048,-161,750,29,4
-2909,881,8760,-140,693,52,4
-2889,881,8852,-127,541,60,4
-2889,936,8852,-127,541,60,4
-2867,943,9309,-95,447,43,4
-3018,1050,9603,-32,450,1,4
-2828,983,9701,22,502,-54,4
-2642,748,9735,21,598,-80,4
-2639,677,9596,-28,707,-74,4
-2589,512,9117,-123,775,-64,4
-2531,221,8596,-215,773,-50,4
-2459,56,8255,-269,718,-21,4
-2482,-44,8132,-279,646,31,4
-2482,-44,8132,-279,646,31,4
-2713,137,8298,-275,551,75,4
-2918,293,8477,-262,462,100,4
-3198,391,8696,-248,400,95,4
-3305,321,8758,-240,370,65,4
-3367,236,8604,-222,354,39,4
-3477,305,8417,-213,309,7,4
-5027,-1389,8396,-231,2528,-173,4
-5225,-1235,7861,-57,2669,-63,4
-5449,-1003,7197,106,2756,36,4
-5551,-337,7177,255,2778,100,4
-5948,246,7081,332,2818,106,4
-6080,318,6507,336,2877,45,4
-6080,318,6507,336,2877,45,4
-6096,-31,5816,278,2918,-21,4
-6139,-216,5012,169,2902,-31,4
-6319,-228,4389,29,2805,4,4
-6600,-338,3401,-129,2648,36,4
-6748,-284,2646,-199,2503,50,4
-6757,-195,1456,-217,2307,79,4
-6859,-209,361,-156,2024,117,4
-6851,70,19,-24,1726,146,4
-7037,354,-612,140,1451,149,4
-7037,354,-612,140,1451,149,4
-7086,582,-1192,331,1151,114,4
-7069,631,-1381,509,860,56,4
-6975,681,-1150,601,557,-4,4
-7125,826,-839,549,216,-56,4
-7487,1034,-1294,373,-167,-122,4
-7818,839,-2133,178,-660,-211,4
-7635,685,-2334,17,-1283,-295,4
-7765,610,-2567,-113,-1965,-383,4
-7099,23,-4616,-131,-2670,-467,4
-7099,23,-4616,-131,-2670,-467,4
-6965,104,-6902,102,-3477,-498,4
-6344,391,-7499,398,-4553,-575,4
-3287,184,-6175,582,-5975,-668,4
-246,-606,-4402,642,-7438,-621,4
2451,-1209,-782,608,-8803,-338,4
4689,-2463,3639,390,-9959,130,4
5276,-4930,11723,319,-10627,749,4
6295,-5175,23619,524,-9998,1301,4
4024,-430,-31517,537,-7632,1739,4
4024,-430,-31517,537,-7632,1739,4
461,4765,-30343,119,-4389,1624,4
-2486,7671,27811,-610,-1756,945,4
-2539,4468,17743,-1216,-538,58,4
-921,-326,13148,-1132,-493,-467,4
-958,-3759,14191,-354,-783,-497,4
-1071,-4115,17386,541,-698,-285,4
-971,-2068,18397,1067,-180,-10,4
-2237,320,17093,1133,398,240,4
-3062,1359,16334,826,782,309,4
-3062,1359,16334,826,1089,290,4
-2550,906,15969,365,1089,290,4
-2547,642,15115,-3,1404,296,4
-2751,684,13856,-161,1687,295,4
-2809,1502,12984,-164,1909,229,4
-2786,2021,12721,-163,2126,97,4
-2750,1885,12217,-174,2338,-23,4
-2822,1515,11569,-154,2473,-121,4
-3176,838,11478,-105,2506,-183,4
-2967,7,11475,-16,2586,-182,4
-2967,7,11475,98,2827,-135,4
-2848,-160,11150,98,2827,-135,4
-3069,3,10480,138,3109,-75,4
-3452,644,9783,57,3293,-37,4
-3839,1148,9006,-145,3363,-63,4
-4179,1268,7983,-394,3351,-145,4
-4405,1034,7801,-601,3290,-242,4
-4285,270,7765,-748,3289,-291,4
-4155,-520,7596,-812,3404,-273,4
-4305,-1092,6325,-772,3565,-172,4
-4305,-1092,6325,-620,3629,-14,4
-4654,-1148,4540,-620,3629,-14,4
-4935,-831,2886,-378,3551,151,4
-5497,-497,1147,-63,3332,272,4
-5726,-156,424,297,3001,317,4
-5897,320,693,620,2661,321,4
-6247,702,1293,821,2383,290,4
-6583,784,914,831,2182,216,4
-6589,695,-51,717,1946,130,4
-6616,739,-909,525,1605,78,4
-7037,677,-1536,293,1113,50,4
-7037,677,-1536,293,1113,50,4
-7160,760,-1440,75,502,18,4
-7351,500,-1417,-102,-116,-11,4
-7366,87,-1502,-226,-651,-42,4
-6660,-489,-3348,-296,-1147,-43,4
-6166,-756,-6702,-133,-1727,41,4
-6169,-90,-9600,194,-2610,179,4
-5875,739,-9706,447,-4175,185,4
-2901,692,-7623,591,-6077,74,4
428,317,-4158,642,-7808,67,4
428,317,-4158,642,-7808,67,4
3032,-841,253,590,-9288,260,4
5446,-435,7820,681,-10435,626,4
5385,-1049,21766,904,-10356,976,4
3261,2197,32711,863,-8269,1215,4
-885,4709,-28990,507,-4916,962,4
-2269,5570,30510,-75,-1789,337,4
-2042,2952,20628,-640,-28,-215,4
-541,-595,13710,-937,247,-375,4
-1477,-2551,12276,-739,-216,-120,4
-1477,-2551,12276,-739,-216,-120,4
-2565,-2179,13932,-235,-582,184,4
-2766,-413,15926,268,-457,277,4
-3232,1144,15400,487,65,261,4
-3626,2038,13402,387,470,226,4
-4138,1952,12108,82,593,142,4
-3780,1275,11042,-270,536,45,4
-6345,-818,-401,252,1887,42,4
-6464,-646,-617,348,1596,122,4
-6629,-413,-1123,364,1293,180,4
-6772,-102,-1479,331,946,210,4
-6900,289,-1548,252,568,193,4
-7160,592,-1761,141,160,122,4
-7362,388,-1975,-26,-310,9,4
-7470,111,-2197,-165,-807,-117,4
-7470,111,-2197,-165,-807,-117,4
-6958,-163,-2355,-302,-1368,-193,4
-7015,-463,-2859,-398,-1982,-233,4
-6257,-1025,-4168,-396,-2626,-254,4
-5660,-1024,-6892,-162,-3309,-204,4
-5085,-756,-8898,182,-4296,-145,4
-3432,186,-8210,493,-5714,-153,4
-1306,892,-4969,639,-7369,-248,4
1733,1300,-872,649,-8994,-381,4
4400,-40,3387,572,-10245,-324,4
4400,-40,3387,572,-10245,-324,4
5954,-1630,11008,761,-10830,-56,4
6037,-463,24855,1368,-10197,214,4
2519,2250,-30742,1163,-7632,463,4
244,3998,-30471,554,-4166,263,4
-1357,3450,26673,-69,-1276,-212,4
-820,-167,17898,-524,-26,-587,4
-664,-3321,14810,-415,-274,-505,4
-756,-4280,17303,36,-804,-188,4
-765,-3375,20231,519,-794,73,4
-765,-3375,20231,519,-794,73,4
-1325,-1714,20596,795,-166,244,4
-2324,20,19073,899,521,375,4
-3035,896,18448,739,1009,345,4
-2895,775,17929,391,1404,279,4
-2779,922,16499,61,1797,199,4
-2538,873,14501,-135,2119,124,4
-2426,1019,12873,-202,2318,84,4
-2300,1113,11720,-206,2458,86,4
-2669,1274,10904,-173,2549,93,4
-2669,1274,10904,-173,2549,93,4
-3136,1531,10510,-99,2568,64,4
-3410,1466,10524,-21,2571,-3,4
-3442,830,10244,54,2645,-62,4
-3211,360,9859,140,2816,-81,4
-3281,11,9572,160,3029,-42,4
-3251,-76,9129,97,3213,32,4
-3620,585,9207,-24,3356,69,4
-4037,1176,8455,-220,3495,36,4
-4202,1384,7524,-450,3593,-61,4
-4202,1384,7524,-450,3654,-177,4
-4241,1323,6951,-638,3654,-177,4
-4167,897,6575,-750,3674,-265,4
-4596,442,5586,-800,3682,-292,4
-4673,-63,4180,-782,3668,-284,4
-4648,-628,2563,-718,3607,-232,4
-4711,-1433,1396,-636,3449,-94,4
-4998,-1696,122,-529,3199,116,4
-5444,-1439,-1197,-378,2836,334,4
-6022,-823,-2116,-160,2408,493,4
-6022,-823,-2116,80,1932,558,4
-6591,-126,-2712,80,1932,558,4
-7006,669,-2859,279,1415,507,4
-7276,1325,-2571,387,853,375,4
-7601,1877,-2194,378,278,182,4
-7926,1832,-2080,270,-266,-64,4
-7545,1336,-2568,138,-811,-287,4
-7050,658,-3635,81,-1421,-430,4
-6234,130,-5976,193,-2072,-451,4
-6652,381,-8255,451,-2927,-401,4
-6652,381,-8255,726,-4166,-417,4
-5728,720,-8896,726,-4166,-417,4
-3771,1032,-7049,840,-5764,-508,4
-607,445,-4272,792,-7519,-586,4
2606,105,471,695,-9051,-504,4
4995,-1721,5757,717,-10131,-171,4
5493,-3128,14769,1061,-10278,339,4
6137,-644,28285,1424,-9042,785,4
1274,4205,-30221,1147,-6188,996,4
-2019,6166,32626,404,-2970,578,4
-2632,5204,23986,-367,-712,-178,4
-2632,5204,23986,-367,-712,-178,4
-899,808,15585,-935,39,-689,4
-798,-2736,12260,-969,-401,-658,4
-1599,-3857,14167,-535,-1046,-335,4
-1377,-3148,16883,-20,-1235,-56,4
-1611,-1789,17950,275,-718,128,4
-2001,-288,16316,253,-4,317,4
-2910,776,14536,29,455,443,4
-3011,1048,13158,-323,679,434,4
-2916,733,11133,-587,794,381,4
-2916,733,11133,-587,794,381,4
-2924,348,9030,-613,814,331,4
-2997,270,7715,-397,723,311,4
-3308,684,8026,-69,589,284,4
-3214,1039,8953,159,526,202,4
-3177,1033,9519,270,532,94,4
-3117,855,9614,297,552,-6,4
-2790,656,9741,235,584,-72,4
-2628,446,9706,111,626,-103,4
-2567,200,9615,-32,640,-102,4
-2567,200,9615,-32,640,-102,4
-2483,-15,9225,-148,645,-83,4
-2553,-138,8732,-231,623,-48,4
-2609,-258,8372,-280,560,-6,4
-2560,-387,8212,-298,478,53,4
-6150,-494,1550,45,2156,20,4
-6256,-471,595,83,1981,103,4
-6409,46,-338,129,1724,171,4
-6653,178,-1123,185,1385,189,4
-6733,425,-1344,259,1006,176,4
-6990,575,-1593,331,643,119,4
-6990,575,-1593,331,643,119,4
-7191,776,-1592,364,277,13,4
-6937,857,-1300,311,-114,-108,4
-6952,428,-1916,180,-520,-188,4
-6789,-41,-2904,97,-976,-218,4
-6814,-59,-3943,120,-1477,-230,4
-6009,-533,-6315,251,-2069,-222,4
-5986,-89,-8853,548,-2863,-171,4
-4582,38,-10346,878,-4131,-92,4
-2367,100,-9611,1044,-5878,-14,4
-2367,100,-9611,1044,-5878,-14,4
478,544,-6159,1085,-7838,61,4
2941,137,-739,810,-9716,164,4
5818,-1393,5454,341,-11271,375,4
7936,-4144,17899,167,-11962,734,4
8098,-3851,-32506,89,-10505,1251,4
4442,660,-26337,-32,-6959,1659,4
1103,5444,-28174,-640,-2874,1585,4
-2656,5574,23568,-1180,-234,858,4
-650,1637,14492,-1265,250,131,4
-650,1637,14492,-1265,250,131,4
-290,-2535,13773,-717,-405,-90,4
-1032,-4071,18205,246,-770,21,4
-1134,-2817,20426,1137,-317,124,4
-1634,-430,19168,1575,505,255,4
-2985,1751,17246,1524,1078,350,4
-3408,2292,16759,1072,1388,279,4
-2711,1752,16448,474,1652,198,4
-2740,1430,15133,-3,1915,152,4
-2851,1666,13591,-228,2120,98,4
-2851,1666,13591,-282,2299,-20,4
-2968,2592,12936,-282,2299,-20,4
-3005,3195,12787,-303,2523,-208,4
-3125,3199,12555,-321,2778,-430,4
-2847,2285,12161,-334,2951,-622,4
-2892,1124,11440,-318,3065,-732,4
-2822,-17,10175,-279,3119,-716,4
-2871,-908,9322,-241,3132,-580,4
-2873,-976,9018,-234,3193,-390,4
-3194,-830,8315,-285,3284,-212,4
-3194,-830,8315,-285,3284,-212,4
-3779,-419,7373,-356,3346,-91,4
-4095,240,6996,-437,3312,-53,4
-4246,605,6916,-517,3267,-75,4
-4266,455,6659,-552,3324,-127,4
-4496,327,5649,-509,3471,-171,4
-4792,-11,3835,-414,3588,-200,4
-4786,-285,2449,-276,3563,-189,4
-4849,-122,1423,-130,3428,-143,4
-4992,-317,171,-14,3219,-74,4
-4992,-317,171,-14,3219,-74,4
-4967,-461,-1543,135,2968,15,4
-5267,-527,-3371,341,2658,122,4
-5839,-224,-4776,565,2213,209,4
-6425,221,-5310,709,1577,251,4
-6632,772,-4777,743,809,226,4
-6909,1308,-3510,613,63,125,4
-7128,1215,-3186,295,-639,-12,4
-7186,783,-3845,-59,-1386,-138,4
-6637,381,-5726,-313,-2227,-200,4
-6637,381,-5726,-313,-3326,-218,4
-6527,193,-7927,-373,-3326,-218,4
-5393,317,-7835,-306,-4828,-277,4
-2715,-197,-4822,-321,-6646,-341,4
784,-1379,-568,-387,-8330,-313,4
3248,-2404,4601,-394,-9571,-34,4
4989,-2575,12770,-83,-10056,419,4
4101,-2287,23334,430,-9051,844,4
836,1630,30860,737,-6673,1035,4
-2458,4011,31342,591,-3852,679,4
-2804,3893,25724,200,-1608,26,4
-2804,3893,25724,200,-1608,26,4
-1631,1043,18765,-194,-486,-444,4
-740,-1647,14049,-375,-343,-470,4
-1540,-2874,13451,-206,-643,-210,4
-2169,-2298,15483,69,-819,52,4
-2465,-1362,16591,246,-537,196,4
-2879,-208,15308,206,-51,296,4
-3499,701,13774,29,312,356,4
-3985,1127,13138,-287,493,288,4
-3985,1127,13138,-596,596,149,4
-3759,954,12460,-596,596,149,4
-3493,482,11339,-745,741,17,4
-3043,135,9955,-723,916,-74,4
-2903,-229,8707,-605,1009,-91,4
-2785,-313,8187,-426,968,-52,4
-2815,-343,8017,-236,837,17,4
-2943,-256,8092,-50,693,90,4
-3174,-167,8367,103,644,155,4
-3280,-43,8343,216,694,198,4
-3280,-43,8133,277,764,211,4
-3358,39,8133,277,764,211,4
-3457,241,7708,273,774,202,4
-3634,323,7549,205,648,172,4
-3600,379,7878,106,455,125,4
-3571,356,8116,0,311,78,4
-3591,128,8219,-82,224,45,4
-3669,2,8347,-114,146,37,4
-4822,-446,10017,-693,2647,-255,4
-5038,-510,8956,-701,2830,-239,4
-5008,-903,8067,-647,2946,-219,4
-5046,-1156,7034,-552,3012,-145,4
-5241,-1391,5986,-443,3015,-44,4
-5267,-1345,5793,-335,2961,54,4
-5475,-784,5979,-271,2922,156,4
-5836,-177,5365,-229,2933,194,4
-5836,-177,5365,-229,2933,194,4
-5857,-10,4492,-152,2962,156,4
-6027,-59,3071,-65,2966,124,4
-6318,-491,1484,34,2832,105,4
-6461,-565,1025,95,2563,113,4
-6662,-570,453,61,2234,144,4
-6641,-550,-294,3,1890,185,4
-6817,-384,-983,-32,1533,222,4
-7037,-95,-1520,-51,1159,227,4
-7077,224,-1744,-45,750,189,4
-7077,224,-1744,-45,750,189,4
-7227,423,-1811,-59,309,113,4
-7097,375,-1640,-91,-144,18,4
-6971,94,-1703,-124,-573,-56,4
-7135,-51,-2587,-157,-993,-97,4
-7220,125,-3509,-173,-1530,-145,4
-7380,142,-4086,-141,-2179,-240,4
-6630,-88,-5843,-31,-2904,-342,4
-6131,-35,-7963,178,-3877,-411,4
-4686,-2,-7715,364,-5243,-480,4
-4686,-2,-7715,364,-5243,-480,4
-1655,-485,-5912,528,-6798,-519,4
1331,-1147,-3120,699,-8257,-419,4
3553,-1811,1381,841,-9514,-171,4
4174,-1586,7738,1130,-10470,81,4
6890,-2760,20209,1524,-10463,284,4
6068,-564,-31936,1596,-8711,551,4
2017,3723,-26953,1222,-5379,746,4
-1289,6419,31633,425,-2032,430,4
-2154,3488,21426,-273,-109,-260,4
-2154,3488,21426,-273,-109,-260,4
-446,-1404,15000,-423,186,-557,4
-1022,-3884,15316,9,-249,-358,4
-1176,-3681,18373,568,-469,-40,4
-1409,-1777,19670,905,-135,194,4
-2353,350,18002,973,511,372,4
-3488,1365,16718,698,940,388,4
-3285,1283,16375,266,1220,337,4
-3152,1103,15601,-125,1540,267,4
-2974,928,13891,-380,1839,184,4
-2974,928,13891,-480,2015,111,4
-2756,1244,12374,-480,2015,111,4
-2617,1703,11741,-520,2152,36,4
-2780,1905,11137,-516,2307,-32,4
-3259,1636,10287,-497,2379,-130,4
-3117,1353,10307,-411,2345,-236,4
-3069,936,10547,-280,2373,-302,4
-3068,192,10387,-146,2532,-315,4
-3085,-381,9790,-32,2767,-274,4
-3125,-811,8906,6,2990,-180,4
-3125,-811,8906,-47,3108,-51,4
-3250,-914,7948,-47,3108,-51,4
-3690,-513,7024,-147,3111,73,4
-4090,75,6916,-262,3066,129,4
-4542,622,7048,-400,3034,117,4
-4791,727,7276,-547,3059,61,4
-4821,482,7165,-664,3152,-11,4
-4963,184,5668,-715,3280,-58,4
-5063,-246,3510,-696,3330,-54,4
-5302,-516,1363,-591,3185,-7,4
-5302,-516,-65,-409,2868,55,4
-5587,-405,-65,-409,2868,55,4
-6025,-285,-911,-207,2428,113,4
-6235,-69,-1101,31,1955,142,4
-6416,21,-1296,257,1530,145,4
-6604,174,-1399,453,1128,120,4
-6668,458,-1141,557,705,89,4
-6854,636,-746,546,255,50,4
-7083,695,-477,426,-172,-12,4
-7272,727,-1115,210,-606,-99,4
-7227,326,-2776,0,-1147,-200,4
-7227,326,-2776,0,-1147,-200,4
-6757,187,-5099,-56,-1837,-257,4
-6912,305,-7886,36,-2780,-285,4
-5880,683,-8292,219,-4130,-353,4
-3492,689,-6728,371,-5782,-496,4
-338,-112,-3433,373,-7523,-536,4
2553,-1663,933,273,-9026,-342,4
5740,-2702,8476,391,-10009,32,4
5983,-4134,20450,718,-9682,528,4
3818,-1129,31251,855,-7770,982,4
3818,-1129,31251,855,-7770,982,4
705,2842,-30131,590,-4774,1010,4
-1466,4832,29923,62,-1775,586,4
-1700,3183,19703,-459,62,0,4
-1098,-309,12691,-561,287,-338,4
-1753,-2693,12339,-145,-342,-329,4
-1890,-3125,15437,458,-783,-180,4
-1890,-1744,17461,870,-559,-65,4
-2550,-329,16113,922,-4,18,4
-2797,582,14030,687,366,97,4
-2797,582,14030,687,366,97,4
-3202,880,12997,364,503,156,4
-2915,814,12483,1,544,149,4
-2705,455,10992,-271,565,156,4
-2811,604,9543,-380,518,178,4
-7134,288,-1786,325,1107,166,4
-7312,635,-1582,189,610,108,4
-7509,878,-1028,83,216,-6,4
-7234,453,-1015,-45,-155,-127,4
-7433,-46,-1103,-146,-540,-193,4
-7328,-350,-1648,-221,-967,-218,4
-7147,-562,-2208,-257,-1476,-213,4
-6898,-809,-3635,-196,-2020,-184,4
-6898,-809,-3635,-196,-2020,-184,4
-6698,-656,-6189,48,-2661,-125,4
-6500,-390,-7852,378,-3618,-99,4
-4875,-357,-8082,705,-4907,-130,4
-1847,-166,-7069,1039,-6320,-138,4
643,199,-4445,1270,-7793,-65,4
3373,-608,217,1310,-9200,110,4
5497,-1016,5651,1265,-10297,513,4
5915,-2985,16381,1445,-10665,961,4
4788,1714,31211,1544,-9441,1188,4
4788,1714,31211,1544,-9441,1188,4
-72,6996,-28192,982,-6461,1075,4
-1484,8292,31478,-135,-3047,301,4
-1148,4552,20606,-1094,-920,-513,4
77,-1194,13592,-1262,-494,-779,4
-723,-4137,14748,-654,-1050,-574,4
-607,-4113,19503,202,-1243,-277,4
-417,-2232,21460,773,-632,-67,4
-1349,-269,19610,868,130,79,4
-2246,486,18719,646,587,211,4
-2246,486,18719,646,587,211,4
-2608,297,18892,326,1025,243,4
-2298,202,18394,-21,1565,255,4
-2580,416,16308,-299,2101,268,4
-2622,897,13584,-459,2410,247,4
-2739,1477,12288,-557,2480,186,4
-2793,1625,11601,-628,2449,124,4
-2957,1642,11368,-631,2417,46,4
-3243,1160,10979,-540,2452,-29,4
-3280,848,10399,-353,2554,-89,4
-3280,848,10399,-353,2554,-89,4
-3250,415,9991,-157,2689,-114,4
-3323,160,9717,-12,2839,-98,4
-3449,120,9318,20,2977,-64,4
-3626,145,9084,-50,3069,-43,4
-3785,443,8774,-213,3159,-37,4
-3883,569,8360,-401,3287,-54,4
-3899,351,7377,-572,3444,-71,4
-4049,116,6399,-654,3563,-69,4
-4103,-41,5365,-621,3613,-34,4
-4103,-41,5365,-621,3613,-34,4
-4206,44,4859,-495,3622,11,4
-4846,16,3826,-371,3618,61,4
-5174,-62,1956,-260,3529,91,4
-5248,-183,117,-135,3306,117,4
-5296,-202,-1216,23,2966,183,4
-5862,-22,-2311,174,2538,254,4
-6404,282,-2964,292,2014,274,4
-6854,604,-3219,362,1413,234,4
-7171,929,-2884,368,775,136,4
-7171,929,-2884,368,180,-7,4
-7196,1083,-1986,309,180,-7,4
-7015,827,-1572,160,-342,-140,4
-7133,290,-2076,11,-866,-237,4
-6772,-153,-2724,-103,-1448,-297,4
-6007,-704,-4688,-143,-2105,-284,4
-5668,-557,-7635,4,-2937,-199,4
-5009,107,-8860,228,-4164,-121,4
-2695,193,-8420,401,-5786,-98,4
64,172,-4693,530,-7557,-98,4
64,172,-4693,597,-9063,41,4
2921,-513,270,597,-9063,41,4
4867,-422,7046,844,-10090,298,4
4961,-1240,19021,1194,-10019,527,4
3499,2664,29967,1216,-8327,681,4
376,5203,-32054,725,-5406,480,4
-1134,5264,28159,-45,-2648,-91,4
-546,2396,19488,-640,-1071,-563,4
326,-2023,14182,-756,-864,-697,4
-470,-3906,15432,-256,-1262,-477,4
-470,-3906,15432,383,-1340,-170,4
-319,-3674,18637,383,-1340,-170,4
-890,-2032,19501,755,-775,21,4
-1488,-470,17246,763,-142,136,4
-2231,530,15591,498,135,254,4
-3048,1283,15456,190,266,307,4
-2919,1560,14985,-155,526,161,4
-2103,795,11353,-412,827,45,4
-2157,732,7678,-442,842,76,4
-2926,875,7149,-343,529,143,4
-2926,875,8888,-215,235,115,4
-3025,1024,8888,-215,235,115,4
-2651,894,9968,-76,246,36,4
-2653,949,9576,70,437,-23,4
-2550,1022,8913,149,569,-60,4
-2455,876,9250,127,584,-84,4
-2379,616,9778,31,594,-95,4
-2383,366,9863,-87,648,-106,4
-2237,220,9852,-228,725,-119,4
-2035,-52,9676,-372,801,-96,4
-1972,-244,9186,-497,857,-24,4
-1972,-244,9186,-497,857,-24,4
-2140,-312,8593,-579,846,65,4
-2271,-360,8159,-604,762,150,4
-2435,-501,7976,-560,637,226,4
-2547,-600,8110,-439,559,305,4
-5248,-80,6252,-977,3786,-218,4
-5248,-80,6252,-977,3786,-218,4
-5741,-135,4849,-814,3662,-175,4
-5822,-592,4035,-540,3431,-141,4
-5850,-1042,4122,-245,3191,-69,4
-5936,-1141,4470,-22,3056,17,4
-6576,-1378,3638,60,2992,108,4
-6404,-891,3376,118,2862,178,4
-6604,-591,2529,85,2694,284,4
-7154,-387,2055,70,2454,362,4
-7625,139,1980,65,2139,371,4
-7625,139,1980,65,2139,371,4
-7205,-37,1610,51,1797,346,4
-8419,506,2210,78,1507,332,4
-8018,463,2177,37,1307,246,4
-8281,597,1733,-25,1080,163,4
-8331,707,1469,-97,810,85,4
-8220,624,1719,-135,524,14,4
-8187,463,1834,-133,302,-40,4
-8114,156,1700,-81,135,-80,4
-8155,58,1024,-15,-34,-93,4
-8276,-120,490,32,-289,-81,4
-8255,429,-1034,186,-1849,-200,4
-8255,429,-1034,186,-1849,-200,4
-7805,279,-1734,258,-2428,-280,4
-6900,-19,-2847,380,-3104,-346,4
-6104,55,-4180,635,-3819,-350,4
-5462,661,-5117,921,-4679,-390,4
-5462,661,-5117,921,-4679,-390,4
-3620,1026,-5252,1186,-5735,-495,4
-1588,1235,-3579,1404,-6842,-568,4
617,827,-1123,1558,-7911,-535,4
1994,209,1922,1563,-8816,-357,4
3146,284,7246,1557,-9480,-128,4
4610,-1219,16916,1599,-9509,116,4
3302,437,26044,1309,-8238,395,4
1125,2855,31329,838,-5814,430,4
588,3907,29312,67,-3010,158,4
588,3907,29312,67,-3010,158,4
-145,2002,24011,-670,-1018,-132,4
-403,-1179,18636,-752,-220,-183,4
-890,-2800,16661,-232,-161,-68,4
-1489,-2828,17614,420,-122,86,4
-1759,-1457,17775,872,213,243,4
-2924,354,16695,1045,704,364,4
-3706,1324,15810,927,1086,368,4
-3518,1471,15598,585,1412,317,4
-3164,1660,14951,164,1737,298,4
-3164,1660,14951,164,2004,276,4
-3119,2086,13853,-238,2004,276,4
-3181,2792,13116,-533,2193,212,4
-3499,3294,12811,-773,2379,102,4
-3672,3016,12563,-975,2590,-48,4
-3664,2161,11291,-1091,2800,-190,4
-3335,1227,10217,-1066,2930,-277,4
-3315,216,9474,-957,2982,-261,4
-3332,-191,9327,-795,3052,-183,4
-3419,-107,9468,-623,3247,-109,4
-3419,-107,9468,-508,3549,-58,4
-3628,-141,9626,-508,3549,-58,4
-3866,162,9177,-480,3845,-43,4
-3899,77,8319,-529,4056,-54,4
-3634,-452,7299,-615,4176,-33,4
-3826,-208,6764,-709,4211,25,4
-4560,545,5892,-878,4175,96,4
-5002,972,4173,-1070,4044,97,4
-5474,555,2536,-1177,3799,44,4
-5761,181,1048,-1153,3470,16,4
-5761,181,1048,-1009,3052,40,4
-6055,-196,-343,-1009,3052,40,4
-6549,-331,-973,-758,2563,75,4
-6960,-209,-1156,-467,2054,102,4
-7156,-3,-1134,-180,1569,87,4
-7217,-34,-865,50,1139,39,4
-7094,-69,-665,198,755,-8,4
-7021,-52,-842,271,390,-37,4
-7237,53,-1529,280,-11,-43,4
-7521,106,-2289,238,-555,-69,4
-7721,106,-2748,179,-1249,-125,4
-7335,113,-7616,438,-2966,-268,4
-7335,113,-7616,438,-2966,-268,4
-6392,860,-9105,751,-4279,-378,4
-4466,1593,-8120,1000,-5922,-572,4
-926,1886,-5138,1139,-7607,-789,4
2179,1044,-519,1154,-9046,-888,4
3810,-110,3821,1099,-10032,-727,4
5073,-1840,11978,1273,-10381,-430,4
4727,-1820,23288,1437,-9552,-96,4
4727,-1820,23288,1437,-9552,-96,4
2334,672,31204,1169,-7330,155,4
876,3151,31797,577,-4320,114,4
447,2508,25001,-93,-1651,-173,4
-173,-571,17767,-420,-415,-367,4
-540,-3150,14991,-18,-416,-280,4
-920,-3353,15562,601,-737,-90,4
-1592,-2309,17053,1023,-684,33,4
-1802,-1200,16248,1131,-252,93,4
-2331,302,14494,945,142,208,4
-2331,302,14494,945,142,208,4
-3450,1296,13671,586,362,265,4
-3281,1219,13317,103,496,204,4
-2578,707,11581,-304,634,147,4
-2055,305,9078,-533,687,200,4
-2549,309,7993,-563,563,332,4
-5930,-820,7183,-687,2422,-18,4
-5886,-1093,7050,-530,2406,40,4
-6064,-1061,6776,-384,2462,116,4
-6064,-1061,6776,-384,2462,116,4
-6234,-677,6350,-288,2499,175,4
-6321,-379,6029,-218,2467,221,4
-6367,-296,6014,-168,2427,270,4
-6685,-228,5670,-138,2436,289,4
-6795,-266,5030,-141,2444,288,4
-6964,-244,4200,-158,2405,292,4
-7238,-226,3134,-188,2285,307,4
-7357,-111,2366,-202,2072,308,4
-7477,211,2170,-191,1801,285,4
-7477,211,2170,-191,1801,285,4
-7524,484,2557,-153,1553,248,4
-7767,445,2165,-95,1409,178,4
-7816,375,1609,-17,1306,97,4
-7563,258,1469,13,1150,36,4
-7598,263,1255,-9,952,-15,4
-7799,336,848,-80,712,-34,4
-7794,232,561,-92,430,-67,4
-7704,-37,567,-53,169,-95,4
-7896,-189,5,-3,-73,-106,4
-7896,-189,5,28,-427,-111,4
-7995,-266,-953,28,-427,-111,4
-7902,-114,-1235,58,-930,-103,4
-7874,156,-1503,93,-1486,-113,4
-7762,179,-2015,169,-2054,-188,4
-6922,16,-3716,369,-2623,-275,4
-6390,190,-5913,718,-3251,-312,4
-5542,428,-8102,1202,-4087,-354,4
-3925,960,-8030,1620,-5219,-374,4
-1229,1168,-7085,1876,-6731,-383,4
-1229,1168,-7085,1937,-8315,-339,4
1228,1368,-3189,1937,-8315,-339,4
3774,501,1887,1704,-9688,-179,4
5210,-1094,8909,1272,-10643,172,4
5367,-2781,17497,1139,-10693,498,4
4687,-1966,28668,1096,-9396,641,4
4451,857,-28509,335,-6480,840,4
1536,4316,-31585,-233,-3105,835,4
-442,4354,25000,-856,-656,492,4
-1003,474,17230,-908,262,91,4
-1003,474,15097,-147,131,-83,4
-1271,-2181,15097,-147,131,-83,4
-1482,-2754,17277,719,-105,-28,4
-1540,-1411,18588,1342,113,108,4
-2584,967,18165,1546,709,228,4
-3527,2080,17295,1280,1261,204,4
-3128,2203,16536,711,1693,139,4
-2665,2011,15306,40,2028,145,4
-2778,2122,13716,-521,2246,144,4
-2983,2358,12269,-850,2337,105,4
-3186,2870,11568,-981,2382,-1,4
-3186,2870,11568,-981,2382,-1,4
-3320,2690,10695,-1004,2504,-138,4
-3265,1975,10047,-892,2646,-251,4
-3391,1324,9572,-673,2734,-324,4
-3643,668,9294,-429,2759,-354,4
-3705,89,8932,-216,2789,-351,4
-3467,-116,8798,-92,2851,-298,4
-3327,-248,9221,-82,2959,-205,4
-3565,299,9649,-145,3156,-105,4
-4055,1124,9383,-267,3437,-104,4
-4055,1124,9383,-267,3437,-104,4
-4277,982,8490,-449,3674,-180,4
-4042,544,7886,-599,3830,-240,4
-4024,209,7101,-734,3937,-234,4
-4628,-256,5472,-879,3983,-174,4
-4944,-183,3735,-976,3904,-111,4
-5276,-3,2283,-1021,3645,-72,4
-5672,-39,1444,-976,3268,-33,4
-6077,-222,348,-833,2894,9,4
-6392,-329,-488,-594,2533,26,4
-6392,-329,-488,-594,2533,26,4
-6631,-376,-1088,-334,2149,34,4
-6723,-362,-1601,-102,1719,52,4
-6817,-214,-1773,66,1251,65,4
-6866,-55,-1738,161,775,67,4
-6912,126,-1873,193,320,45,4
-7220,2,-2770,170,-133,-3,4
-7265,-183,-3917,139,-706,-61,4
-6540,-558,-5249,171,-1432,-96,4
-6433,-425,-7432,353,-2277,-41,4
-6433,-425,-7432,353,-2277,-41,4
-6282,338,-8857,580,-3444,2,4
-4795,766,-8304,775,-4966,-85,4
-2018,742,-6284,891,-6669,-194,4
813,900,-3006,883,-8337,-230,4
3674,86,2023,771,-9743,-155,4
5953,-556,9684,823,-10660,153,4
5722,-1532,23344,1087,-10317,485,4
2982,790,-31975,1032,-8093,714,4
-605,3371,-29690,747,-4670,585,4
-605,3371,-29690,747,-4670,585,4
-2408,3400,28619,307,-1627,-32,4
-1395,947,20018,-94,-163,-497,4
-387,-2023,15135,-185,-82,-489,4
-1354,-3117,15291,75,-519,-205,4
-1867,-2748,17048,414,-642,59,4
-1976,-1202,17077,654,-207,222,4
-2830,435,14993,714,379,364,4
-3668,1208,13258,469,687,402,4
-3590,1247,12244,33,744,386,4
-4576,93,11123,-21,2569,-709,4
-4532,-45,10648,-222,2687,-613,4
-4907,63,10185,-395,2798,-501,4
-5426,-192,9223,-521,2873,-408,4
-5318,-223,8827,-561,2883,-340,4
-5419,-320,8976,-563,2919,-260,4
-5419,-320,8976,-563,2919,-260,4
-5424,-452,9075,-553,3048,-169,4
-5344,-388,8461,-548,3258,-97,4
-5303,-147,7281,-555,3441,-37,4
-5510,228,5970,-565,3527,29,4
-5785,282,4537,-521,3485,73,4
-6090,193,4068,-417,3374,81,4
-6415,-215,3194,-357,3258,81,4
-6599,-625,2108,-341,3085,89,4
-6882,-918,1039,-376,2800,140,4
-6882,-918,1039,-376,2800,140,4
-6977,-684,495,-448,2401,253,4
-7332,-337,-107,-488,1958,351,4
-7429,-15,153,-436,1577,370,4
-7440,232,534,-352,1296,331,4
-7525,315,183,-297,1075,269,4
-7627,238,-252,-254,813,202,4
-7501,-13,-486,-233,492,163,4
-7569,-223,-644,-207,146,163,4
-7657,-141,-982,-163,-204,180,4
