aX,aY,aZ,gX,gY,gZ,target
-2342,-4259,8932,-273,-12,-1631,3
-2324,-4734,9236,-216,-21,-1372,3
-2257,-4999,9385,-190,0,-1111,3
-2073,-5196,9564,-174,28,-865,3
-1891,-5422,9626,-128,93,-621,3
-1895,-5422,9480,-42,173,-373,3
-1988,-5484,9384,53,229,-127,3
-1777,-6131,9069,123,273,143,3
-1777,-6131,9069,123,273,143,3
-1645,-6869,8720,151,280,475,3
-1453,-7153,8293,101,192,893,3
-1371,-7539,8256,21,15,1382,3
-999,-7520,8738,-69,-160,1941,3
-790,-7308,8821,-143,-295,2562,3
-15,-7133,8900,-221,-419,3238,3
732,-7253,9172,-298,-576,4023,3
826,-7051,9227,-248,-690,4841,3
826,-7051,9072,-68,-672,5566,3
746,-6058,9072,-68,-672,5566,3
309,-4589,8717,167,-647,6067,3
183,-3108,8411,397,-666,6355,3
509,-1858,8220,677,-690,6481,3
1314,-704,8172,982,-675,6533,3
2370,-612,7984,1266,-642,6637,3
2014,34,7891,1530,-624,6834,3
1777,1611,8421,1659,-610,6988,3
656,4613,10158,1619,-577,6930,3
-1226,8114,11298,1343,-455,6577,3
-1226,8114,11298,1343,-455,6577,3
-3160,11114,11851,951,-290,5834,3
-4439,12263,11381,601,-81,4819,3
-5598,11533,10191,379,125,3723,3
-4974,10388,9014,229,201,2705,3
-3883,8727,8468,81,135,1915,3
-3268,7497,8214,-4,33,1392,3
-2947,6719,8372,23,2,1018,3
-2787,6050,8748,136,71,722,3
-2696,5521,8751,268,196,480,3
-2696,5521,8751,361,269,286,3
-2819,5123,8325,361,269,286,3
-3042,5008,8042,383,236,110,3
-2985,4722,8173,344,131,-63,3
-3023,4687,8605,285,32,-223,3
-2965,4997,9086,194,-27,-384,3
-3199,5542,9354,73,-53,-588,3
-3257,5541,9512,-75,-81,-849,3
-2918,4728,9450,-207,-96,-1332,3
-2918,4728,9450,-207,-96,-1332,3
-2791,4210,9247,-204,-103,-1517,3
-2732,3686,9183,-172,-124,-1649,3
-2755,3662,9359,-116,-155,-1740,3
-2935,3860,9665,-61,-169,-1842,3
-3214,4210,10033,-24,-133,-1995,3
-2986,4131,10082,-18,-44,-2197,3
-2950,3672,10153,-21,61,-2403,3
-2792,3312,10052,-20,156,-2572,3
-2712,2903,9938,-48,234,-2704,3
-2712,2903,9938,-48,234,-2704,3
-2586,2244,9583,-122,277,-2792,3
-2321,1647,9306,-222,270,-2817,3
-1980,1245,9213,-357,189,-2734,3
-1864,696,8927,-535,40,-2566,3
-1917,130,8969,-671,-85,-2376,3
-2316,-465,9138,-704,-115,-2185,3
-2427,-680,9022,-652,-101,-2008,3
-2846,-748,8985,-587,-123,-1880,3
-2944,-790,9201,-532,-159,-1781,3
-2944,-790,9201,-532,-159,-1781,3
-2956,-689,9720,-483,-59,-1624,3
-2953,-597,8839,-642,84,-1806,3
-2953,-597,8839,-642,84,-1806,3
-2815,-1479,8733,-600,40,-1759,3
-2742,-1864,8763,-517,-9,-1612,3
-2836,-1813,8939,-412,-53,-1423,3
-3041,-1580,9235,-309,-61,-1258,3
-3041,-1580,9235,-309,-61,-1258,3
-3193,-1458,9231,-216,-18,-1165,3
-3279,-1295,9266,-149,-9,-1122,3
-3412,-1098,9507,-128,-14,-1111,3
-3611,-836,9363,-142,-10,-1138,3
-3597,-632,9383,-189,-25,-1216,3
-3431,-798,9531,-229,-7,-1303,3
-3421,-1150,9335,-255,30,-1359,3
-2998,-1846,8973,-267,43,-1351,3
-2998,-1846,8973,-243,37,-1225,3
-2669,-2671,9038,-243,37,-1225,3
-2776,-2873,9158,-188,49,-1019,3
-3025,-2803,9245,-111,78,-808,3
-3005,-2236,9353,-61,85,-635,3
-3241,-1538,9521,-69,65,-522,3
-3408,-1268,9652,-86,64,-493,3
-3406,-1225,9656,-74,100,-514,3
-3309,-1479,9504,-51,142,-526,3
-3284,-1768,9318,-20,150,-501,3
-3284,-1768,9303,7,142,-447,3
-3164,-2014,9303,7,142,-447,3
-2968,-2340,9230,17,158,-351,3
-3007,-2427,9254,9,172,-210,3
-3242,-2468,9061,-12,167,-70,3
-3346,-1887,9542,-30,160,229,3
-3346,-1887,9542,-30,160,229,3
-3462,-1429,9497,-47,208,255,3
-3565,-1252,9354,-80,224,240,3
-3600,-1015,9268,-122,215,213,3
-3649,-1596,9140,22,35,-242,3
-3713,-1168,9298,19,29,-231,3
-3948,-626,9248,-15,18,-270,3
-3987,-619,9203,-46,12,-370,3
-3987,-619,9203,-56,18,-466,3
-3915,-790,9249,-56,18,-466,3
-3885,-1178,9089,-50,36,-528,3
-3905,-1526,9025,-29,31,-559,3
-3680,-1860,9163,-30,9,-560,3
-3546,-2222,9259,-45,-8,-522,3
-3538,-2409,9198,-67,-25,-465,3
-3420,-2673,9323,-63,-44,-400,3
-3330,-2896,9393,0,-17,-318,3
-3255,-3002,9336,47,21,-225,3
-3255,-3002,9113,57,15,-122,3
-3103,-3327,9113,57,15,-122,3
-2891,-3596,9054,19,-45,24,3
-2715,-3906,9083,-25,-94,212,3
-2712,-4202,9011,-53,-121,446,3
-2615,-4266,8891,-61,-150,727,3
-2377,-4365,8774,-54,-183,1053,3
-2274,-4490,8863,-30,-225,1437,3
-2175,-4401,8767,-3,-282,1852,3
-2187,-3822,8706,107,-310,2249,3
-2243,-3192,8426,240,-307,2577,3
-2243,-3192,8426,240,-307,2577,3
-2003,-3038,8155,333,-359,2835,3
-1730,-3176,8486,434,-441,3073,3
-981,-3503,8812,539,-461,3384,3
-921,-4005,8685,683,-471,3787,3
1135,-4364,8671,822,-524,4348,3
332,-3828,8355,1031,-587,4963,3
352,-2188,8609,1215,-636,5436,3
-229,-277,9092,1235,-673,5676,3
-498,1572,9684,1096,-704,5689,3
-498,1572,9684,1096,-704,5689,3
-1257,3176,9882,872,-682,5499,3
-1603,4340,9985,596,-667,5165,3
-1757,4516,10420,411,-630,4761,3
-2335,4728,10717,452,-474,4379,3
-2628,5771,10289,678,-198,3982,3
-3491,7339,9943,903,34,3498,3
-3793,8562,9383,956,138,2926,3
-3966,9018,8977,864,161,2322,3
-3936,8709,8659,646,83,1727,3
-3936,8709,8659,646,83,1727,3
-3580,7503,8784,402,-51,1219,3
-2970,6217,9012,272,-103,855,3
-2559,5304,8973,251,-52,610,3
-2355,4476,8711,269,18,458,3
-2333,3978,8656,301,54,370,3
-2364,3833,8654,360,57,299,3
-2465,3866,8854,438,60,218,3
-2539,4261,9224,487,59,139,3
-2970,4888,9516,450,41,17,3
-3160,5477,9644,320,7,-182,3
-2190,3491,9327,-199,-72,-889,3
-2190,3491,9327,-199,-72,-889,3
-1919,2839,9209,-147,-73,-894,3
-1995,2608,9159,-57,-76,-845,3
-2268,3059,9498,42,-93,-780,3
-2685,3720,9775,105,-69,-784,3
-2685,3720,9775,105,-69,-784,3
-2868,4095,9748,111,-31,-874,3
-2994,4415,9934,78,-17,-1007,3
-3081,4795,10244,40,20,-1165,3
-2184,4894,10753,-12,136,-1344,3
-3487,4621,9790,-109,274,-1521,3
-3085,4393,9553,-135,304,-1744,3
-2545,3550,9516,-194,351,-1943,3
-2276,2757,8994,-256,369,-2017,3
-2282,2291,8809,-318,312,-2015,3
-2282,2291,8809,-318,226,-1957,3
-2242,1897,8761,-376,226,-1957,3
-2316,1978,8798,-465,116,-1856,3
-2688,2440,8882,-545,-1,-1778,3
-3253,2880,9075,-642,-95,-1804,3
-3294,2864,9114,-717,-127,-1925,3
-3038,2656,9162,-755,-128,-2059,3
-2736,1890,9181,-796,-98,-2123,3
-2390,1558,9274,-797,-61,-2127,3
-2787,1020,8824,-729,-28,-2104,3
-2787,1020,8824,-633,-25,-2085,3
-2678,1143,9300,-633,-25,-2085,3
-2975,1398,9339,-582,-3,-2099,3
-3476,1146,9157,-521,36,-2173,3
-3470,766,8824,-448,29,-2260,3
-2847,165,8956,-348,3,-2307,3
-2586,-205,9273,-269,0,-2265,3
-2493,-336,9280,-233,15,-2156,3
-2688,-358,9223,-268,-3,-2030,3
-2863,-527,9095,-348,-47,-1924,3
-2863,-527,9095,-436,-96,-1843,3
-2801,-832,9136,-436,-96,-1843,3
-2614,-1168,9390,-499,-127,-1758,3
-2822,-1435,9704,-521,-131,-1646,3
-2991,-1365,9713,-486,-80,-1543,3
-3390,-1081,9542,-412,-16,-1486,3
-3377,-766,9352,-351,-6,-1480,3
-3260,-894,9437,-284,-23,-1495,3
-3011,-1152,9345,-220,-17,-1472,3
-2840,-1491,9327,-141,11,-1400,3
-2925,-1641,9200,-71,51,-1289,3
-2925,-1641,9200,-71,51,-1289,3
-3939,-709,9260,0,59,-370,3
-3698,-990,9278,37,75,-439,3
-3567,-1296,9256,37,73,-457,3
-3451,-1487,9410,21,62,-435,3
-3451,-1487,9410,21,62,-435,3
-3693,-1140,9711,-19,67,-416,3
-3851,-1152,9544,-78,85,-439,3
-3817,-1434,9335,-120,82,-488,3
-3476,-1965,9241,-118,81,-505,3
-3391,-2271,9023,-82,93,-459,3
-3501,-2475,8979,14,109,-393,3
-3296,-2525,9031,75,124,-320,3
-3314,-2697,8909,119,117,-240,3
-3205,-2918,8851,145,100,-160,3
-3205,-2918,8851,145,100,-160,3
-3099,-3251,8648,174,91,-67,3
-2732,-3605,8711,188,63,67,3
-2566,-3866,8705,166,14,263,3
-2597,-3950,8717,110,-36,487,3
-2495,-4144,8599,43,-87,737,3
-2333,-4286,8627,-10,-158,1038,3
-2204,-4462,8709,-67,-255,1405,3
-1855,-4411,8921,-134,-383,1820,3
-1591,-4473,9146,-145,-472,2295,3
-1591,-4473,9146,-145,-472,2295,3
-1625,-4170,9511,-72,-441,2797,3
-1444,-4083,9589,64,-323,3237,3
-809,-4124,9321,255,-205,3681,3
-437,-3500,8709,505,-116,4150,3
248,-2730,7953,789,-72,4564,3
180,-2051,7534,1056,-91,4955,3
252,-1033,7645,1207,-214,5277,3
116,66,8426,1204,-365,5504,3
-448,1458,9625,1084,-471,5603,3
-448,1458,9625,1084,-471,5603,3
-880,3101,10887,836,-452,5520,3
-1700,4248,11335,550,-331,5289,3
-2069,5132,11134,342,-177,4951,3
-2654,6295,10754,206,-31,4542,3
-3507,7780,10302,135,38,4064,3
-4325,8877,9576,78,45,3473,3
-4521,8909,9394,60,24,2779,3
-4591,8176,9200,92,51,2139,3
-4249,7479,8860,133,84,1596,3
-4249,7479,8860,133,84,1596,3
-3803,6625,8743,127,66,1155,3
-3428,5775,8823,86,36,832,3
-3175,5125,8987,53,31,604,3
-3062,4721,9135,50,65,436,3
-3037,4540,9056,53,116,302,3
-3154,4532,8965,42,133,175,3
-3383,5020,9261,31,124,9,3
-3384,5496,8970,-1,116,-180,3
-3460,5505,8487,-61,62,-390,3
-3460,5505,8487,-61,62,-613,3
-3402,5210,8508,-91,-44,-613,3
-3093,4512,8718,-51,-106,-800,3
-3025,3955,8891,52,-117,-940,3
-2725,3346,8924,121,-133,-1025,3
-2573,2835,9098,149,-167,-1054,3
-2559,2646,9300,157,-196,-1036,3
-2798,2792,9647,156,-202,-1015,3
-2965,3181,9960,164,-160,-1038,3
-3235,3651,10546,213,-59,-1122,3
-3235,3651,10546,260,114,-1265,3
-3512,4107,10883,260,114,-1265,3
-3584,4193,10644,251,310,-1470,3
-3375,3783,10107,172,437,-1681,3
-3065,3068,9535,29,441,-1820,3
-2841,2390,9086,-93,368,-1880,3
-2779,2208,8798,-177,274,-1879,3
-2529,2340,8694,-238,169,-1850,3
-2756,2274,9087,-273,94,-1804,3
-3434,2895,9454,-241,105,-1802,3
-3434,2895,9454,-198,175,-1912,3
-3817,3199,9221,-198,175,-1912,3
-3751,2904,8742,-199,202,-2079,3
-3396,2244,8389,-254,125,-2207,3
-3175,1546,8228,-322,4,-2252,3
-2951,1156,8338,-317,-65,-2255,3
-2664,815,8627,-302,-78,-2211,3
-2951,1109,9004,-267,-98,-2144,3
-3371,1422,9449,-248,-90,-2123,3
-3468,1403,9493,-226,-31,-2171,3
-3468,1403,9241,-235,7,-2214,3
-3249,777,9241,-235,7,-2214,3
-2912,-98,8925,-277,-41,-2185,3
-2723,-653,9087,-298,-109,-2068,3
-2983,-751,9207,-287,-139,-1923,3
-3146,-813,9074,-268,-136,-1805,3
-3217,-624,9247,-259,-155,-1722,3
-3189,-171,9762,-263,-149,-1668,3
-3388,-68,9863,-293,-72,-1655,3
-3304,-459,9538,-321,13,-1666,3
-3084,-1038,9327,-343,39,-1629,3
-3084,-1038,9327,-343,39,-1629,3
-2982,-1539,9241,-355,30,-1525,3
-3004,-1726,9278,-332,32,-1373,3
-3160,-1439,9312,-288,41,-1230,3
-3422,-1451,9157,-260,42,-1124,3
-3351,-1592,9071,-230,29,-1034,3
-3402,-1640,9134,-199,18,-941,3
-3511,-1520,9215,-180,18,-859,3
-3698,-1152,9340,-188,17,-810,3
-3207,-2705,9297,121,141,-480,3
-3135,-2837,9113,121,141,-480,3
-3144,-2957,9251,108,99,-348,3
-2947,-3298,9183,25,29,-198,3
-2937,-3597,9109,-86,-36,-31,3
-2736,-4023,8921,-164,-76,145,3
-2519,-4443,8932,-180,-94,367,3
-2318,-4795,8943,-156,-92,644,3
-2336,-5063,8651,-120,-105,1000,3
-1534,-5948,8730,-122,-193,1469,3
-1534,-5948,8730,-122,-193,1469,3
-705,-7267,8818,-112,-319,2152,3
-375,-7618,8847,4,-395,3000,3
191,-7063,8781,229,-368,3841,3
-202,-5913,8416,499,-303,4601,3
-538,-3903,8082,678,-348,5156,3
-671,-2219,8056,699,-516,5459,3
-406,-796,8207,672,-666,5567,3
644,-157,8414,688,-678,5564,3
821,-137,8372,710,-609,5623,3
821,-137,8372,710,-609,5623,3
43,350,8396,698,-616,5757,3
-315,1469,8962,701,-677,5797,3
-571,2719,9873,624,-651,5696,3
-1272,3999,10352,463,-575,5484,3
-1147,5290,10646,335,-459,5170,3
-2222,6051,10808,302,-312,4790,3
-3038,7405,10817,393,-148,4329,3
-3805,8569,10393,501,51,3731,3
-4523,9491,9933,544,195,3045,3
-4523,9491,9933,544,195,3045,3
-4680,9744,9360,452,221,2322,3
-4292,9131,9146,251,165,1637,3
-3583,7976,8793,34,105,1087,3
-3013,6781,8672,-127,57,690,3
-2597,5690,8754,-169,44,425,3
-2324,5077,8732,-98,94,252,3
-2115,4469,8770,38,149,142,3
-2311,4284,8799,232,215,70,3
-2244,4187,8847,406,268,10,3
-2244,4187,9188,514,255,-42,3
-2516,4585,9188,514,255,-42,3
-2933,5497,9820,535,236,-147,3
-3640,6380,10126,491,263,-345,3
-3950,6746,9919,386,302,-667,3
-3620,6443,9385,213,270,-1031,3
-3036,5565,8964,14,135,-1337,3
-2524,4225,8992,-149,-42,-1518,3
-1874,2830,9231,-185,-120,-1566,3
-1802,2023,9339,-92,-84,-1489,3
-1802,2023,9339,-92,-84,-1489,3
-2121,2032,9415,29,-24,-1352,3
-2605,2812,9669,97,-3,-1244,3
-3312,3873,10023,111,9,-1252,3
-3781,4569,10267,79,65,-1413,3
-3862,4774,10024,9,135,-1670,3
-3536,4441,9693,-78,171,-1954,3
-3193,3834,9394,-152,206,-2193,3
-2477,2950,8812,-199,219,-2334,3
-2279,1885,8667,-218,177,-2345,3
-2279,1885,8667,-218,127,-2251,3
-1921,989,8670,-189,127,-2251,3
-2152,644,8597,-174,94,-2070,3
-2580,814,8392,-178,40,-1890,3
-3129,1178,8504,-229,-63,-1778,3
-3408,1604,8807,-279,-171,-1753,3
-3657,2030,9096,-301,-216,-1804,3
-3753,2176,9360,-266,-179,-1926,3
-3555,2169,9390,-227,-113,-2070,3
-3266,2108,9330,-191,-61,-2214,3
-3266,2108,9330,-191,-10,-2323,3
-3443,1566,9064,-201,-29,-2387,3
-2998,818,8563,-201,-29,-2387,3
-2575,62,8784,-227,-105,-2366,3
-2264,-821,8989,-263,-152,-2241,3
-2276,-1485,8957,-291,-180,-2003,3
-2563,-1495,9169,-318,-213,-1726,3
-2897,-1093,9622,-338,-224,-1486,3
-3200,-619,9869,-342,-176,-1341,3
-3597,43,9846,-337,-100,-1307,3
-3888,720,9708,-335,-44,-1387,3
-3888,720,9708,-335,-44,-1387,3
-3884,669,9493,-358,-5,-1547,3
-3476,220,9238,-382,0,-1681,3
-3113,-449,9073,-355,-3,-1729,3
-2675,-1171,8946,-312,2,-1673,3
-2786,-1716,8796,-232,-4,-1527,3
-2914,-1548,8965,-143,-33,-1342,3
-3270,-1233,9144,-86,-31,-1192,3
-3483,-1044,9120,-64,-47,-1109,3
-3483,-1044,9360,-69,-88,-1053,3
-3379,-1202,9360,-69,-88,-1053,3
-3347,-1150,9650,-88,-107,-995,3
-3415,-641,10039,-99,-78,-953,3
-3781,-20,10261,-140,-7,-970,3
-3865,394,10043,-193,88,-1069,3
-3950,532,9669,-281,129,-1216,3
-3894,211,9195,-383,99,-1358,3
-3690,-490,8858,-451,47,-1469,3
-3189,-1433,8589,-450,18,-1489,3
-2817,-2463,8419,-401,-9,-1376,3
-2817,-2463,8419,-401,-9,-1376,3
-2739,-3160,8493,-332,-67,-1147,3
-2774,-3123,8841,-255,-103,-861,3
-3824,-1344,9433,-17,24,-319,3
-3702,-1473,9486,-39,41,-363,3
-3494,-1825,9183,-43,36,-366,3
-3340,-2117,9281,-52,16,-315,3
-3460,-2188,9278,-50,9,-243,3
-3383,-2325,9357,-84,-35,-177,3
-3229,-2611,9425,-122,-70,-104,3
-3105,-2915,9560,-141,-63,-22,3
-3105,-2915,9560,-141,-63,-22,3
-2876,-3237,9556,-140,-39,92,3
-2800,-3414,9635,-135,-14,233,3
-2687,-3604,9686,-136,12,398,3
-2748,-3919,9668,-135,43,598,3
-2517,-4437,9661,-134,53,853,3
-1724,-5480,9707,-94,71,1233,3
-321,-6869,9536,27,106,1830,3
1753,-8835,9174,315,147,2793,3
1753,-8835,9174,315,147,2793,3
1780,-9071,9198,813,218,3989,3
29,-6574,8539,1308,415,5030,3
-612,-3912,7112,1536,474,5624,3
659,-2932,6528,1493,264,5936,3
966,-1622,5949,1188,-75,6248,3
988,489,5866,777,-481,6457,3
-156,2140,6958,353,-919,6427,3
-338,3014,9609,85,-1185,6212,3
-290,3474,11424,60,-1040,5974,3
-290,3474,11424,60,-1040,5974,3
-212,4192,11659,299,-582,5712,3
-769,5127,11270,600,-94,5444,3
-1806,6792,10476,746,190,5145,3
-2609,9221,9896,676,246,4697,3
-4034,10695,9678,500,220,4067,3
-4904,11448,9250,338,169,3311,3
-5065,11303,8971,197,125,2475,3
-4510,10183,8806,69,77,1697,3
-3605,8574,8766,-31,56,1093,3
-3605,8574,8766,-31,56,1093,3
-2946,7091,8611,-70,81,681,3
-2644,6000,8495,-43,130,409,3
-2589,5474,8644,58,184,213,3
-2816,5629,8809,193,258,28,3
-3079,5892,8809,255,291,-172,3
-3291,5863,8853,225,241,-411,3
-2918,5454,8800,126,189,-637,3
-2742,4869,8388,17,135,-800,3
-2742,4475,8255,-60,32,-909,3
-2742,4475,8255,-60,32,-990,3
-2520,4043,8476,-85,-77,-990,3
-2376,3518,9008,-39,-104,-1039,3
-2350,3024,9111,42,-73,-1046,3
-2301,2577,9272,86,-68,-1026,3
-2228,2239,9511,85,-74,-967,3
-2516,2092,9610,57,-74,-890,3
-2738,2239,9626,29,-74,-831,3
-2953,2508,9789,8,-73,-812,3
-3174,2882,9832,0,-51,-831,3
-3174,2882,9832,17,-11,-906,3
-3391,3315,9926,17,-11,-906,3
-3559,3829,10007,44,53,-1040,3
-3733,4322,10161,69,132,-1216,3
-3774,4583,9897,89,246,-1436,3
-3529,4412,9393,70,334,-1662,3
-3085,3713,8900,-29,304,-1815,3
-2599,2871,8627,-181,190,-1861,3
-2065,2013,8494,-317,93,-1812,3
-2163,1109,8545,-362,36,-1675,3
-2163,1109,8545,-324,17,-1489,3
-2353,774,8438,-324,17,-1489,3
-2745,836,8543,-260,-24,-1317,3
-3158,1056,8706,-185,-61,-1197,3
-3416,1342,8870,-98,-69,-1141,3
-3733,1929,9255,4,-37,-1149,3
-4188,3146,9832,101,19,-1246,3
-4746,4054,9930,117,96,-1477,3
-4662,4244,9616,44,150,-1811,3
-4089,3737,9004,-108,145,-2141,3
-4089,3737,8531,-292,79,-2348,3
-3455,2535,8531,-292,79,-2348,3
-2755,1223,8323,-379,11,-2382,3
-2426,189,8185,-420,-59,-2282,3
-2338,-612,8019,-419,-160,-2056,3
-2440,-1022,8201,-406,-289,-1749,3
-2920,-731,8712,-313,-348,-1456,3
-3467,100,9108,-166,-325,-1277,3
-3829,1052,9696,-24,-265,-1238,3
-4051,1716,9986,62,-171,-1323,3
-4346,2298,9765,76,-82,-1512,3
-4346,2298,9765,76,-82,-1512,3
-3841,2310,9664,1,-37,-1747,3
-3936,1357,9105,-147,-41,-1925,3
-3308,571,8895,-245,-108,-2023,3
-2711,-611,8951,-287,-141,-1999,3
-2737,-1241,8831,-302,-152,-1836,3
-3044,-1243,8794,-288,-188,-1617,3
-3199,-1283,9080,-278,-219,-1425,3
-3141,-1239,9330,-247,-211,-1263,3
-3797,320,9683,-147,9,-1163,3
-3797,320,9683,-147,9,-1163,3
-3756,153,9407,-152,30,-1255,3
-3522,-106,9212,-184,-13,-1318,3
-3096,-1009,9260,-219,-56,-1299,3
-2949,-1733,9297,-243,-79,-1172,3
-3120,-2068,9044,-226,-95,-973,3
-3554,-1240,9481,-48,-26,-309,3
-3553,-1525,9503,-61,-31,-296,3
-3464,-1689,9479,-59,-23,-272,3
-3299,-1755,9579,-47,-1,-225,3
-3426,-1780,9412,-16,28,-171,3
-3425,-1881,9281,-9,40,-135,3
-3265,-2171,9336,1,67,-94,3
-2965,-2499,9193,-39,60,14,3
-2965,-2499,9193,-39,60,14,3
-3069,-2566,9117,-77,11,131,3
-3054,-2697,9302,-94,15,240,3
-3048,-2751,9170,-72,38,368,3
-3176,-2354,9132,-42,47,507,3
-3188,-2057,9038,-23,33,628,3
-3044,-1969,8903,-7,10,756,3
-3198,-1850,8985,6,-3,893,3
-3044,-1789,9075,0,-43,1040,3
-3101,-1745,9178,-39,-117,1211,3
-3101,-1745,9178,-39,-117,1211,3
-2745,-1853,9136,-54,-183,1395,3
-2836,-2325,9347,9,-209,1590,3
-1715,-3170,9602,92,-215,1888,3
-909,-4730,10131,204,-196,2386,3
-336,-6077,11002,432,-67,3101,3
918,-6532,11308,660,210,3900,3
-31,-5879,10012,824,442,4701,3
-591,-4258,9129,913,456,5328,3
-715,-2618,8752,907,295,5692,3
-715,-2618,8752,907,295,5692,3
-141,-1509,9372,829,139,5893,3
254,-573,9353,725,67,6039,3
612,553,9074,618,22,6126,3
281,1338,8800,499,-34,6181,3
-181,2519,8691,396,-105,6156,3
-788,3614,8737,365,-124,5996,3
-995,5123,8958,444,-58,5753,3
-1647,7574,9174,594,58,5415,3
-3495,11036,9491,767,226,4951,3
-3495,11036,9491,885,491,4185,3
-4606,13344,9046,885,491,4185,3
-6911,14110,7373,818,659,3160,3
-5836,13239,6734,557,450,2025,3
-4292,10443,7238,178,118,1105,3
-3024,7847,7569,-24,-1,547,3
-2669,5903,7735,23,62,242,3
-2394,4825,7911,155,155,59,3
-2214,4523,8177,252,204,-23,3
-2262,4841,8518,245,194,-72,3
-2262,4841,8518,155,165,-131,3
-2672,5320,8571,155,165,-131,3
-3159,5935,8446,34,105,-265,3
-3343,6117,8621,-75,43,-470,3
-3524,6228,8597,-124,6,-700,3
-3144,6005,8809,-136,-15,-931,3
-3200,5388,8831,-134,-31,-1128,3
-2699,4883,8973,-106,-45,-1301,3
-3117,4018,8734,-87,-62,-1423,3
-3367,4229,8701,-42,-138,-1519,3
-3367,4229,8924,-80,-234,-1608,3
-2927,4168,8924,-80,-234,-1608,3
-2514,3921,9342,-166,-302,-1651,3
-2519,4246,9761,-219,-298,-1603,3
-3693,5260,9775,-240,-243,-1609,3
-4021,6142,9833,-255,-166,-1806,3
-3343,5937,9670,-316,-69,-2111,3
-3083,4850,9566,-381,3,-2364,3
-2671,3999,9108,-434,29,-2520,3
-3395,3186,8513,-459,12,-2605,3
-2600,2723,8636,-438,-75,-2658,3
-2600,2723,8636,-438,-75,-2658,3
-1864,2178,9147,-441,-130,-2640,3
-1977,1789,9170,-471,-142,-2511,3
-2761,2063,8790,-488,-187,-2360,3
-3203,2346,8744,-470,-251,-2328,3
-3443,2435,9184,-409,-248,-2410,3
-3511,2496,9107,-328,-181,-2532,3
-3576,2437,8884,-262,-129,-2682,3
-3272,2105,8896,-226,-119,-2831,3
-2930,1629,8852,-247,-111,-2928,3
-2930,1629,8852,-247,-111,-2928,3
-2997,726,8373,-296,-130,-2996,3
-2350,266,8385,-397,-245,-2975,3
-1829,-827,8536,-540,-415,-2849,3
-2005,-1537,9102,-582,-498,-2630,3
-2474,-1378,9792,-498,-433,-2402,3
-2956,-1045,9942,-343,-271,-2244,3
-3078,-908,9818,-158,-105,-2169,3
-3113,-870,9578,-10,13,-2118,3
-3189,-999,9170,70,61,-2065,3
-3189,-999,9170,70,61,-2065,3
-3116,-1198,8983,78,28,-2005,3
-2914,-1473,9019,18,-51,-1902,3
-2840,-1454,9318,-48,-120,-1764,3
-2860,-1302,9626,-124,-124,-1635,3
-2926,-1499,9600,-183,-73,-1522,3
-3073,-1901,9455,-199,-12,-1401,3
-2937,-1959,9323,-146,32,-1255,3
-3163,-1750,9401,-64,68,-1110,3
-3376,-1484,9401,24,102,-1005,3
-3376,-1484,9401,24,102,-1005,3
-3437,-1311,9334,83,122,-946,3
-3468,-1400,9265,98,106,-894,3
-3443,-1483,9329,62,53,-835,3
-3329,-1582,9341,17,18,-752,3
-3743,-900,9364,-25,7,-72,3
-3718,-991,9332,-1,21,-68,3
-3665,-1076,9322,6,12,-54,3
-3665,-1076,9322,6,12,-54,3
-3662,-1133,9383,-13,4,-39,3
-3655,-1251,9349,-45,-7,-15,3
-3596,-1335,9385,-68,-20,16,3
-3574,-1399,9371,-80,-21,47,3
-3531,-1457,9332,-80,-18,80,3
-3507,-1536,9306,-67,-15,119,3
-3488,-1590,9304,-53,-9,161,3
-3506,-1538,9320,-48,-10,215,3
-3537,-1481,9305,-57,-15,265,3
-3537,-1481,9305,-57,-15,265,3
-3583,-1422,9203,-79,-26,309,3
-3610,-1429,9079,-100,-44,356,3
-3450,-1447,9099,-102,-64,405,3
-3427,-1434,9068,-109,-76,482,3
-3412,-1306,9067,-105,-88,566,3
-3431,-1281,9008,-128,-118,660,3
-3345,-1427,9123,-153,-152,766,3
-2888,-2124,9348,-199,-188,931,3
-1753,-3950,9921,-267,-210,1258,3
-1753,-3950,9921,-267,-210,1258,3
-1237,-5039,10268,-332,-86,2555,3
-990,-5393,10090,-332,-86,2555,3
-1249,-4875,9536,-319,-12,3214,3
-1214,-4254,9028,-298,-31,3732,3
-1075,-3631,8993,-231,-99,4138,3
-872,-2755,8853,-90,-151,4444,3
-711,-2279,8833,128,-155,4663,3
-741,-1714,8630,381,-134,4857,3
-224,-955,8563,742,-150,5201,3
-224,-955,8563,742,-150,5201,3
-559,62,8087,746,-194,5381,3
-587,1111,7886,590,-395,5472,3
-440,1411,8478,401,-635,5464,3
38,1797,8968,336,-747,5459,3
-709,2108,9257,456,-692,5432,3
-1250,3418,9507,679,-542,5321,3
-1733,5239,9601,825,-364,5062,3
-2628,7366,10037,833,-269,4652,3
-2628,7366,10037,686,-195,4129,3
-2169,9355,10804,686,-195,4129,3
-3717,10332,9996,432,-12,3527,3
-4432,10756,9084,136,67,2856,3
-4176,10121,8517,-167,-39,2111,3
-3249,8829,9005,-248,-113,1469,3
-2349,7969,8827,-120,18,1007,3
-2598,7647,8276,34,139,673,3
-2700,6814,10054,377,240,-956,3
-2645,6166,10054,377,240,-956,3
-2524,5648,10141,387,292,-1184,3
-2464,5090,9956,345,321,-1349,3
-2346,4948,9883,264,318,-1467,3
-2207,4858,9668,163,326,-1546,3
-2321,4581,9382,78,323,-1602,3
-2455,4214,8993,30,294,-1650,3
-2571,4214,8962,58,241,-1697,3
-2571,3793,8962,58,241,-1697,3
-2164,3479,9151,120,224,-1718,3
-2328,3351,9206,161,230,-1702,3
-3096,4018,9288,-147,17,-1819,3
-3096,4018,9288,-147,17,-1819,3
-3211,4235,9263,-269,-15,-1936,3
-2842,3876,9492,-315,18,-2057,3
-2816,3443,9303,-338,82,-2142,3
-2477,2904,9030,-331,125,-2196,3
-2477,2904,9030,-331,125,-2196,3
-3052,2001,8550,-362,108,-2210,3
-2366,1609,8508,-358,37,-2171,3
-1957,1257,8908,-395,4,-2072,3
-2947,1251,8614,-419,-4,-1941,3
-3334,2063,8517,-386,-33,-1877,3
-3877,2559,8720,-340,-65,-1946,3
-4033,2885,8472,-293,-69,-2110,3
-3604,2522,8159,-268,-94,-2302,3
-2969,1642,8088,-252,-175,-2439,3
-2969,1642,8088,-252,-175,-2439,3
-2634,768,8366,-210,-251,-2451,3
-2757,457,8693,-103,-268,-2386,3
-2995,766,9303,53,-218,-2321,3
-3217,1299,9495,80,-175,-2291,3
-3339,1328,9214,5,-207,-2312,3
-3333,854,9064,-119,-274,-2357,3
-2884,299,9166,-220,-323,-2369,3
-2743,-180,9101,-282,-329,-2323,3
-2773,-503,9198,-279,-317,-2241,3
-2773,-503,9198,-279,-317,-2241,3
-2807,-199,9306,-224,-281,-2160,3
-3181,72,9327,-166,-238,-2109,3
-2982,-89,9427,-131,-205,-2098,3
-2871,-740,9444,-105,-176,-2048,3
-2632,-1438,9501,-63,-148,-1935,3
-2648,-1651,9505,-59,-145,-1758,3
-2994,-1292,9578,-76,-160,-1588,3
-3134,-1051,9725,-117,-164,-1489,3
-2861,-959,9803,-171,-123,-1420,3
-2861,-959,9803,-193,-69,-1357,3
-3136,-969,9841,-193,-69,-1357,3
-3229,-866,9554,-191,-17,-1301,3
-3242,-1014,9267,-167,-8,-1247,3
-3205,-1243,9345,-126,-9,-1179,3
-3162,-1325,9286,-66,8,-1088,3
-3766,-976,9349,-11,2,-31,3
-3786,-1049,9315,-27,1,-34,3
-3757,-1080,9292,-29,1,-32,3
-3757,-1080,9292,-29,1,-32,3
-3793,-1012,9250,-25,2,-29,3
-3817,-949,9269,-20,6,-34,3
-3798,-887,9304,-19,1,-48,3
-3812,-985,9401,-25,0,-68,3
-3751,-1097,9372,-25,8,-83,3
-3792,-1241,9290,-17,11,-89,3
-3647,-1392,9432,-14,7,-84,3
-3571,-1575,9466,-17,15,-67,3
-3523,-1745,9458,-31,21,-28,3
-3523,-1745,9458,-31,21,-28,3
-3480,-1916,9418,-42,26,22,3
-3485,-1903,9347,-44,25,79,3
-3394,-1977,9367,-31,12,130,3
-3345,-1992,9355,-16,14,180,3
-3324,-2070,9345,-26,18,229,3
-3292,-2238,9298,-56,-1,296,3
-3287,-2237,9393,-80,-15,394,3
-3286,-2121,9276,-105,-7,507,3
-3213,-2018,9054,-144,-29,636,3
-3213,-2018,9054,-144,-29,636,3
-2951,-2260,8956,-180,-67,795,3
-2528,-2975,9004,-200,-94,1047,3
-1765,-4152,8752,-266,-176,1453,3
-1556,-5806,8983,-152,-194,1981,3
-882,-6971,9372,36,-83,2643,3
-687,-6632,8952,279,-4,3407,3
-625,-5253,8665,458,-15,4079,3
-677,-3836,8629,539,-80,4579,3
-217,-2696,8659,530,-138,4931,3
-217,-2696,8659,530,-138,4931,3
-154,-1773,8462,456,-198,5191,3
-69,-653,9193,357,-398,5484,3
-485,2551,9604,406,-433,5705,3
-2623,7306,9865,551,-7,4395,3
-2623,7306,9865,551,-7,4395,3
-3287,8890,10264,532,67,3888,3
-4084,10681,10576,505,187,3341,3
-4882,12209,9988,448,396,2666,3
-5367,12498,8943,252,511,1841,3
-4887,11186,8396,-28,438,1028,3
-4049,9294,8271,-220,339,359,3
-3366,7628,8066,-221,339,-126,3
-3366,7628,8066,-74,398,-472,3
-2872,6597,8118,-74,398,-472,3
-2520,5678,8164,63,422,-706,3
-2379,5044,8318,148,368,-846,3
-2450,4607,8718,200,313,-930,3
-2642,4447,8766,217,282,-988,3
-3038,4593,8784,174,214,-1057,3
-3156,4738,8852,83,106,-1152,3
-2834,4892,9040,4,9,-1258,3
-3324,4701,9512,11,-19,-1372,3
-3324,4701,9591,82,51,-1501,3
-3085,4438,9591,82,51,-1501,3
-3007,3979,9430,124,111,-1615,3
-2855,3644,9279,99,85,-1682,3
-2941,3328,9158,17,20,-1720,3
-3092,3259,9010,-94,-38,-1744,3
-3326,3504,8938,-207,-113,-1786,3
-3378,3811,9028,-282,-174,-1876,3
-3328,3713,9402,-314,-185,-1990,3
-3145,3401,9324,-279,-119,-2092,3
-3060,2840,9125,-204,-43,-2194,3
-3060,2840,9125,-204,-43,-2194,3
-2687,2110,8871,-179,-43,-2234,3
-2536,1560,8726,-192,-102,-2193,3
-2459,1144,8651,-205,-169,-2112,3
-2683,983,8687,-187,-211,-2017,3
-2968,1237,8920,-143,-226,-1943,3
-3390,1811,9135,-97,-221,-1933,3
-3364,2057,9337,-95,-194,-2000,3
-3452,1768,9498,-106,-141,-2094,3
-3119,1197,9467,-145,-65,-2162,3
-3119,1197,9467,-145,-65,-2162,3
-2779,480,9169,-217,-28,-2159,3
-2677,-193,8865,-294,-48,-2071,3
-2755,-503,8986,-319,-87,-1938,3
-2792,-503,8770,-330,-136,-1773,3
-2890,-354,8685,-294,-201,-1637,3
-3117,-616,8997,-183,-200,-1533,3
-3285,-644,8947,-13,-157,-1433,3
-3412,-460,9054,144,-142,-1351,3
-3461,-281,9293,241,-139,-1293,3
-3461,-281,9293,241,-139,-1293,3
-3655,159,9527,246,-128,-1262,3
-3924,586,9605,173,-134,-1285,3
-3818,815,9602,39,-156,-1353,3
-3640,873,9619,-119,-174,-1425,3
-3430,669,9421,-245,-177,-1478,3
-3321,196,9396,-293,-161,-1500,3
-3238,-340,9335,-254,-116,-1474,3
-3229,-595,9302,-152,-54,-1410,3
-3241,-796,9156,-44,-3,-1325,3
-3241,-796,9156,-44,-3,-1325,3
-3400,-613,9002,34,0,-1241,3
-3626,-169,9014,63,-50,-1186,3
-3677,59,9384,49,-102,-1182,3
-3873,361,9440,42,-94,-1232,3
-3700,781,9712,29,-59,-1325,3
-3848,1055,9801,-36,-32,-1441,3
-3585,-1158,9419,2,-23,-20,3
-3602,-1103,9426,14,-12,2,3
-3686,-942,9414,23,-1,14,3
-3745,-784,9466,18,1,1,3
-3724,-803,9410,14,4,-20,3
-3726,-902,9302,13,8,-42,3
-3707,-990,9213,12,1,-53,3
-3656,-1070,9298,16,-4,-59,3
-3656,-1070,9298,16,-4,-59,3
-3651,-1091,9292,16,-1,-58,3
-3639,-1091,9349,10,1,-56,3
-3608,-1141,9450,6,1,-54,3
-3621,-1255,9483,9,7,-54,3
-3649,-1295,9444,23,21,-48,3
-3623,-1385,9366,36,32,-34,3
-3430,-1850,9409,-37,-17,86,3
-3430,-1850,9409,-37,-17,86,3
-3343,-1980,9421,-26,7,131,3
-3284,-2109,9493,-22,19,184,3
-3157,-2306,9480,-34,11,249,3
-2901,-2654,9572,-46,13,352,3
-2731,-2829,9622,-60,26,522,3
-3119,-2841,9480,-88,28,735,3
-2723,-3493,9284,-98,16,972,3
-1558,-5952,9589,-32,30,1361,3
-1558,-5952,9589,-32,120,2087,3
-181,-7537,10250,157,120,2087,3
434,-6564,10107,422,238,2993,3
128,-6035,9762,602,411,3850,3
-685,-4223,9061,652,476,4532,3
-902,-2608,8675,498,395,4943,3
-605,-1719,8568,240,210,5189,3
-159,-1045,8758,72,89,5372,3
-476,-234,8681,12,45,5514,3
-559,753,8462,-32,-26,5579,3
-559,753,8462,-82,-146,5523,3
-1380,2008,8737,-82,-146,5523,3
-1603,3107,8902,-112,-231,5337,3
-2069,3621,8969,-98,-262,5079,3
-2408,4134,9052,-1,-248,4797,3
-2539,4740,8902,154,-180,4496,3
-2750,5398,8824,279,-135,4191,3
-2697,6386,9129,337,-145,3882,3
-3863,7228,9790,405,-69,3539,3
-4496,8319,9609,524,142,3067,3
-4496,8319,9609,543,304,2495,3
-4888,8787,8916,543,304,2495,3
-4901,8601,8487,408,276,1922,3
-4607,8084,8487,199,151,1387,3
-4170,7049,8557,15,65,923,3
-3774,6070,8622,-62,50,563,3
-3497,5473,8697,-39,90,296,3
-3460,5450,8639,25,142,71,3
-3568,5376,8499,71,166,-148,3
-3119,5123,8260,65,135,-339,3
-3096,4886,8419,54,56,-465,3
-3096,4886,8419,54,56,-465,3
-3219,4910,8639,56,-14,-563,3
-3268,4851,8835,68,-39,-682,3
-3288,4662,8976,67,-64,-807,3
-3183,4366,9095,29,-102,-920,3
-3078,4031,9092,-28,-134,-1010,3
-3109,3637,9134,-67,-159,-1081,3
-3169,3434,9339,-74,-172,-1131,3
-3275,3609,9615,-61,-167,-1180,3
-3555,4042,9834,-15,-118,-1268,3
-3555,4042,9834,-15,-118,-1268,3
-3845,4609,10083,45,-34,-1426,3
-3773,4612,10007,77,67,-1624,3
-3655,4325,9869,80,142,-1826,3
-3436,3968,9528,1,149,-1990,3
-3336,3657,9175,-95,109,-2115,3
-3238,3323,8925,-215,37,-2208,3
-3029,3024,8786,-309,-35,-2271,3
-2888,2726,8760,-362,-78,-2319,3
-2530,2099,8825,-387,-69,-2296,3
-2530,2099,8825,-387,-69,-2296,3
-3337,1958,8438,-293,-41,-2265,3
-2956,1779,8822,-136,-28,-2277,3
-2949,1164,8852,-3,-8,-2263,3
-3108,1062,8615,93,-20,-2224,3
-3236,1004,8584,142,-80,-2196,3
-3226,1002,8760,135,-158,-2180,3
-3531,1253,9172,100,-210,-2187,3
-3381,1349,9096,8,-237,-2221,3
-3416,1211,8933,-96,-294,-2272,3
-3416,1211,8933,-96,-294,-2272,3
-3200,1063,9175,-207,-345,-2312,3
-3160,683,9278,-293,-338,-2318,3
-3010,242,9205,-324,-288,-2296,3
-2865,-351,9092,-312,-243,-2232,3
-2801,-832,9091,-276,-221,-2112,3
-2839,-1052,8993,-207,-204,-1966,3
-2952,-1038,9101,-113,-192,-1828,3
-3255,-618,9302,-23,-178,-1725,3
-3491,-479,9318,50,-146,-1682,3
-3491,-479,9318,50,-146,-1682,3
-3341,-374,9391,94,-116,-1684,3
-3358,-497,9474,76,-119,-1664,3
-3243,-732,9722,24,-138,-1623,3
-3211,-1014,9753,-43,-115,-1569,3
-3037,-1316,9839,-107,-80,-1488,3
-3177,-1282,9866,-161,-28,-1370,3
-3336,-1166,9631,-201,15,-1271,3
-3723,-1049,9227,-6,-2,10,3
-3780,-911,9199,-11,-3,6,3
-3796,-961,9205,-8,-4,-13,3
-3735,-1217,9259,6,-17,-36,3
-3711,-1324,9407,7,-21,-29,3
-3637,-1525,9433,-11,-3,36,3
-3634,-1633,9324,-34,-4,153,3
-3571,-1751,9314,-34,-4,153,3
-3571,-1751,9314,-34,-4,153,3
-3448,-1860,9345,-38,-1,188,3
-3401,-1966,9401,-42,-9,244,3
-3394,-1984,9460,-62,-16,316,3
-3349,-2014,9493,-84,-11,405,3
-3244,-1995,9522,-107,0,510,3
-3014,-2397,9658,-131,39,650,3
-2785,-3286,10025,-143,88,864,3
-2817,-4235,9824,-113,158,1175,3
-2817,-4235,9824,-113,158,1175,3
-2126,-4718,9706,-70,202,1610,3
-2038,-4707,9097,-59,194,2096,3
-1483,-4648,8976,-101,119,2592,3
-1075,-4297,8723,-240,-62,3107,3
-1310,-3848,9108,-301,-187,3589,3
-579,-3906,9471,-294,-162,3997,3
-308,-4351,9735,-202,-43,4439,3
-210,-4578,9498,-15,95,4884,3
592,-4360,9444,255,211,5314,3
592,-4360,9444,255,211,5747,3
1012,-3574,9248,569,345,5747,3
601,-1940,8900,775,411,6088,3
558,-327,7923,786,331,6265,3
89,1019,7555,633,80,6309,3
-559,2187,8025,433,-192,6239,3
-577,3109,8508,275,-362,6112,3
-1162,3932,8818,136,-486,5944,3
-1580,5039,9397,90,-538,5693,3
-1484,6580,9763,97,-445,5334,3
-1484,6580,9763,167,-295,4927,3
-2094,8049,10126,298,-74,4471,3
-2151,9937,10490,298,-74,4471,3
-3408,11916,10223,325,232,3924,3
-4041,12701,9061,233,418,3191,3
-5672,12897,8337,23,408,2341,3
-4862,11824,8312,-138,299,1485,3
-4181,10205,8410,-207,257,766,3
-3889,8784,8243,-127,315,205,3
-3364,7722,8245,40,390,-260,3
-2841,6675,8482,188,432,-607,3
-2841,6675,8482,188,432,-607,3
-2536,5747,8663,276,458,-827,3
-2463,4851,8824,277,439,-948,3
-2501,4357,9000,221,412,-1009,3
-2666,4021,8947,144,399,-1019,3
-2975,3964,8695,76,372,-1021,3
-3518,4413,8605,57,313,-1060,3
-3834,5109,8493,83,244,-1171,3
-3905,5407,8175,117,189,-1355,3
-3905,5407,8155,109,80,-1563,3
-3883,5106,8155,109,80,-1563,3
-3561,4491,8153,87,-29,-1732,3
-3343,4054,8224,47,-128,-1839,3
-3192,3658,8193,-6,-217,-1906,3
-2938,3372,8233,-89,-317,-1943,3
-2810,3146,8438,-143,-403,-1959,3
-2749,3104,8873,-100,-432,-1971,3
-2890,3217,9481,-3,-384,-1990,3
-3111,3521,9753,95,-273,-2021,3
-3109,3436,9734,143,-149,-2116,3
-3109,3436,9734,143,-149,-2116,3
-3000,2932,9749,136,-47,-2217,3
-3002,2514,9404,38,-28,-2242,3
-3025,2042,9037,-126,-120,-2219,3
-3206,1934,8941,-291,-232,-2168,3
-3516,2256,8827,-411,-315,-2160,3
-3854,2890,8794,-485,-363,-2216,3
-3921,2939,8756,-485,-371,-2363,3
-3492,2304,8538,-394,-303,-2520,3
-3176,1317,8336,-218,-235,-2612,3
-3176,1317,8336,-218,-211,-2587,3
-2711,370,8137,-35,-211,-2587,3
-2262,-236,8358,107,-244,-2461,3
-2481,-587,8429,172,-306,-2271,3
-2732,-293,8793,148,-386,-2069,3
-3139,155,9239,63,-461,-1912,3
-3360,514,9602,-15,-463,-1838,3
-3644,967,9830,-72,-408,-1838,3
-3653,699,9717,-86,-352,-1870,3
-3493,425,9964,-54,-263,-1912,3
-3493,425,9964,-54,-263,-1912,3
-3263,66,9741,-1,-152,-1938,3
-3254,124,9432,9,-114,-1923,3
-3206,-20,9231,-40,-164,-1885,3
-3147,-210,9178,-105,-230,-1835,3
-3233,-448,9256,-152,-271,-1764,3
-3176,-455,9492,-138,-271,-1690,3
-2879,-549,9554,-98,-217,-1615,3
-2974,-1042,9567,-40,-152,-1507,3
-3236,-774,9559,50,-101,-1392,3
-3236,-774,9559,50,-101,-1392,3
-3415,-535,9567,110,-64,-1333,3
-3351,-503,9597,119,-51,-1305,3
-3572,-217,9595,107,-58,-1291,3
-3720,4,9723,62,-70,-1317,3
-3719,68,9713,-4,-53,-1365,3
-3358,-2020,9348,-66,0,-307,3
-3324,-2189,9310,-66,0,-307,3
-3180,-2359,9406,-53,16,-259,3
-3187,-2520,9231,-52,18,-185,3
-3109,-2673,9308,-40,17,-95,3
-2987,-2834,9351,-17,43,9,3
-2964,-2884,9227,-5,80,130,3
-2926,-2900,9166,2,98,259,3
-2891,-2925,9159,19,113,394,3
-2907,-3030,9214,41,121,550,3
-2907,-3030,9214,63,123,727,3
-2950,-3050,9146,63,123,727,3
-2870,-3062,9242,91,134,915,3
-2717,-3131,9123,144,168,1115,3
-2700,-3166,8982,163,116,1324,3
-2481,-3026,9174,76,-30,1568,3
-2225,-3306,9348,-66,-141,1850,3
-1922,-3567,9377,-197,-196,2188,3
-1925,-4055,9333,-318,-249,2572,3
-1216,-4770,9485,-420,-314,3025,3
-1216,-4770,9485,-463,-392,3591,3
-648,-5235,9470,-463,-392,3591,3
-317,-5075,9337,-422,-462,4179,3
568,-4594,9327,-274,-493,4716,3
720,-4045,9341,-47,-438,5215,3
435,-2921,8998,211,-334,5628,3
472,-1744,8921,412,-291,5880,3
592,-622,8711,490,-270,6009,3
291,683,8750,419,-271,6064,3
-313,2106,8804,210,-317,5987,3
-1219,3062,9032,-36,-396,5784,3
-1219,3062,9032,-36,-396,5784,3
-1715,4022,9332,-186,-456,5492,3
-2282,4484,9789,-129,-426,5130,3
-2684,6163,10372,119,-276,4725,3
-3614,8319,10497,411,-20,4230,3
-4727,10445,9870,547,200,3574,3
-5394,11139,8882,401,186,2762,3
-5097,10316,8688,101,-31,1950,3
-4219,8720,9203,-120,-182,1271,3
-3663,7109,9366,-166,-130,767,3
-3663,7109,9366,-166,-130,767,3
-3248,6031,9200,-121,-24,398,3
-2623,4943,9293,-88,42,143,3
-2542,4048,9611,-26,111,-10,3
-2775,3669,9714,83,204,-111,3
-2922,3562,9811,191,289,-213,3
-2943,3523,9723,236,346,-310,3
-3200,3616,9354,175,331,-403,3
-3395,3803,9085,31,200,-504,3
-3509,3895,8963,-93,45,-633,3
-3509,3895,8963,-93,45,-633,3
-3403,3720,9402,-113,-44,-789,3
-3122,3498,9625,-29,-20,-923,3
-3055,3337,9524,70,42,-1027,3
-2950,3128,9387,109,68,-1112,3
-2673,2714,9462,84,65,-1164,3
-2626,2317,9611,39,69,-1167,3
-2697,2129,9672,-3,83,-1149,3
-2849,2139,9675,-11,111,-1131,3
-3202,2508,9572,21,143,-1151,3
-3202,2508,9572,21,143,-1151,3
-3529,3192,9909,69,158,-1234,3
-3862,3722,10086,139,226,-1383,3
-3990,4034,9675,200,334,-1612,3
-3476,3188,8851,65,273,-2059,3
-2626,184,8794,-253,-87,-1885,3
-2626,184,8794,-253,-87,-1885,3
-2916,410,8732,-202,-91,-1770,3
-3299,699,8926,-144,-119,-1705,3
-3230,653,9168,-75,-111,-1688,3
-3347,592,9170,10,-59,-1687,3
-3418,681,9089,87,-18,-1691,3
-3269,631,9029,130,-6,-1706,3
-3259,366,9078,164,1,-1707,3
-3370,380,9147,191,10,-1697,3
-3300,293,9306,175,10,-1679,3
-3300,293,9306,175,10,-1645,3
-3312,204,9235,108,-1,-1645,3
-3493,224,9087,-5,-60,-1601,3
-3506,236,9198,-138,-155,-1565,3
-3661,396,9491,-215,-180,-1555,3
-3635,780,9600,-241,-145,-1583,3
-3957,1378,9712,-233,-105,-1660,3
-3693,1460,9554,-230,-56,-1802,3
-3360,604,9281,-209,7,-1926,3
-2892,-349,8836,-139,50,-1943,3
-2892,-349,8836,-36,45,-1852,3
-2877,-987,8670,-36,45,-1852,3
-2957,-1298,8739,70,25,-1709,3
-3134,-1118,8813,158,-9,-1563,3
-3367,-768,9145,192,-70,-1455,3
-3628,-248,9474,163,-119,-1412,3
-3708,179,9853,101,-106,-1447,3
-3714,139,9809,12,-59,-1523,3
-3616,-263,9523,-88,-32,-1599,3
-3229,-842,9391,-181,-59,-1613,3
-3229,-842,9391,-244,-91,-1546,3
-2878,-1256,9498,-244,-91,-1546,3
-2975,-1573,9661,-279,-87,-1430,3
-2981,-1899,9527,-261,-40,-1290,3
-3012,-2000,9349,-204,1,-1136,3
-3122,-1883,9253,-136,19,-985,3
-3364,-1610,9297,-63,29,-874,3
-2642,-4350,9101,-77,-63,642,3
-2642,-4350,9101,-77,-63,642,3
-2606,-4346,9084,-85,-86,902,3
-2419,-4386,9136,-99,-114,1193,3
-2279,-4674,8973,-107,-144,1519,3
-2126,-4993,8615,-97,-204,1882,3
-2043,-5540,8504,-29,-296,2299,3
-1249,-5550,8541,72,-342,2773,3
-1361,-5423,8562,89,-392,3304,3
-922,-5193,8612,72,-483,3825,3
-165,-4756,8609,92,-568,4321,3
-165,-4756,8609,92,-568,4321,3
-241,-4177,8450,185,-656,4781,3
483,-3418,8660,323,-711,5147,3
252,-2397,9391,388,-729,5459,3
209,-608,9973,306,-731,5668,3
136,1086,9900,119,-700,5695,3
-296,2045,10037,-84,-664,5591,3
-1345,3146,10162,-233,-637,5380,3
-1557,3934,10537,-274,-572,5045,3
-2257,4402,10905,-156,-437,4693,3
-2257,4402,10905,-156,-437,4693,3
-3041,5228,10571,106,-185,4283,3
-3710,6479,10319,361,91,3770,3
-4372,7439,9700,425,242,3196,3
-4698,8000,9134,335,255,2571,3
-4777,7683,8888,219,205,1936,3
-4449,6909,8740,177,137,1351,3
-3978,5789,8756,180,111,885,3
-3590,4868,8729,211,122,554,3
-3298,4269,8718,232,131,319,3
-3298,4269,8718,232,131,319,3
-2955,3637,8745,237,122,169,3
-2934,3253,8835,262,124,76,3
-3101,3296,8781,271,97,3,3
-3180,3492,9084,219,-1,-97,3
-3438,3659,9683,132,-82,-220,3
-3656,3986,10173,48,-69,-384,3
-3954,4218,10158,-8,-12,-599,3
-3761,4139,9896,-70,26,-849,3
-3570,3437,9678,-135,21,-1062,3
-3570,3437,9678,-135,21,-1062,3
-3326,2858,9597,-164,-3,-1208,3
-3011,2245,9543,-164,-11,-1301,3
-2763,1800,9463,-136,-21,-1328,3
-2561,1546,9631,-100,-32,-1313,3
-2636,1422,9890,-61,-34,-1254,3
-3049,1822,10290,-2,-6,-1216,3
-3132,2114,10412,33,86,-1254,3
-3270,1960,10258,37,177,-1318,3
-3348,2018,10104,40,238,-1387,3
-3348,2018,10104,42,288,-1477,3
-3416,1878,9866,42,288,-1477,3
-3492,1688,9443,19,312,-1565,3
-3367,1441,9043,-60,232,-1636,3
-3215,976,9008,-145,116,-1684,3
-2833,619,9267,-222,76,-1689,3
-2907,415,9073,-294,40,-1631,3
-2852,376,9285,-324,-14,-1556,3
-2940,102,9426,-301,21,-1500,3
-2983,-68,9133,-247,81,-1441,3
-2983,-68,9133,-193,82,-1376,3
-3013,-130,8901,-193,82,-1376,3
-3227,-94,8849,-137,40,-1325,3
-3521,236,9090,-73,-13,-1309,3
-3582,422,9364,-42,-31,-1345,3
-3634,777,9665,-35,12,-1421,3
-3743,1104,9658,-69,67,-1534,3
-3544,924,9427,-138,109,-1675,3
-3413,339,9485,-175,149,-1788,3
-3253,-180,9207,-167,206,-1839,3
-3253,-180,9207,-124,263,-1831,3
-3068,-701,8980,-124,263,-1831,3
-2949,-1091,8705,-95,250,-1746,3
-2965,-1040,8441,-118,156,-1609,3
-3399,-809,8720,-167,-9,-1488,3
-3477,-704,9339,-198,-105,-1433,3
-3426,-721,9498,-197,-67,-1432,3
-3491,-570,9391,-188,-17,-1453,3
-3609,-565,9355,-215,-21,-1493,3
-3322,-1098,9304,-244,-27,-1535,3
-2961,-1637,9353,-226,14,-1519,3
-2961,-1637,9353,-226,14,-1519,3
-3026,-1068,9760,-180,75,-1450,3
-3834,-270,9868,-192,91,-1459,3
-3744,-205,9828,-241,122,-1571,3
-3528,-1031,9425,-266,182,-1692,3
-3129,-1993,8867,-268,205,-1698,3
-2827,-2695,8471,-232,160,-1573,3
-2859,-2888,8666,-169,79,-1384,3
-3017,-2831,9123,-117,21,-1192,3
-3184,-2737,9363,-72,39,-1032,3
-3184,-2737,9363,-72,39,-1032,3
-3186,-2746,9279,-47,99,-916,3
-3107,-2287,9476,-10,141,-812,3
-3644,-1000,9918,15,193,-809,3
-4017,-483,9716,-39,234,-965,3
-3704,-1241,9440,-97,246,-1153,3
-3308,-2255,8880,-105,248,-1229,3
-3172,-3001,8530,-62,227,-1170,3
-2985,-3414,8481,20,198,-1029,3
-2973,-3716,8702,39,114,-808,3
-2973,-3716,8702,39,114,-808,3
-3127,-3629,9004,3,17,-571,3
-3582,-1385,9381,23,29,-73,3
-3640,-1398,9357,31,47,-105,3
-3556,-1555,9290,39,58,-137,3
-3565,-1731,9226,39,49,-144,3
-3565,-1731,9226,39,26,-133,3
-3556,-1805,9190,29,26,-133,3
-3578,-1893,9322,4,1,-111,3
-3533,-1939,9316,-21,-7,-78,3
-3555,-1899,9360,-39,-12,-46,3
-3590,-1842,9311,-43,0,-26,3
-3610,-1792,9286,-27,14,-17,3
-3616,-1846,9209,-4,23,-16,3
-3578,-1834,9245,13,22,-15,3
-3542,-1910,9261,24,29,-4,3
-3542,-1910,9261,36,37,9,3
-3646,-1966,9193,36,37,9,3
-3533,-2084,9207,25,41,20,3
-3424,-2245,9203,1,35,51,3
-3391,-2384,9213,-15,26,102,3
-3329,-2477,9284,-18,35,161,3
-3321,-2501,9396,-24,68,226,3
-3334,-2572,9268,-44,102,294,3
-3320,-2711,8992,-85,88,369,3
-3041,-3165,8969,-128,54,463,3
-3041,-3165,8981,-152,12,612,3
-3180,-3663,8981,-105,44,813,3
-2889,-4667,9102,-105,44,813,3
-1926,-5687,9049,-30,86,1171,3
-1012,-6497,9081,23,55,1739,3
-453,-6826,9025,24,-4,2464,3
-439,-6824,8811,-6,-99,3248,3
-850,-5643,8522,47,-199,3954,3
-1228,-4315,9005,99,-266,4414,3
-867,-3157,9022,65,-291,4703,3
-439,-2627,8902,16,-326,4915,3
-439,-2627,8902,16,-326,4915,3
-370,-2458,8883,31,-357,5116,3
-89,-2120,8660,126,-368,5332,3
-471,-1588,8663,296,-389,5515,3
-1148,2793,8096,523,-523,5297,3
-1831,4238,8238,523,-523,5297,3
-2191,5742,8925,340,-682,4941,3
-2191,5742,8925,340,-682,4941,3
-3244,7427,9903,236,-753,4514,3
-4092,9189,10837,255,-632,3973,3
-4453,10097,10861,303,-301,3294,3
-4845,10057,10165,240,-15,2549,3
-4542,9272,9340,29,34,1866,3
-3695,7720,9267,-225,-69,1302,3
-3030,6038,9407,-340,-98,910,3
-2851,5005,9247,-281,-7,657,3
-2897,4514,9105,-158,60,466,3
-2897,4514,9105,-158,60,466,3
-2918,4307,9300,-45,76,304,3
-3024,4494,9658,44,97,150,3
-3275,4737,9726,131,163,-28,3
-3632,5235,9822,209,237,-257,3
-3366,5395,9885,257,309,-516,3
-3229,5362,10035,284,378,-762,3
-3189,5176,9797,295,466,-971,3
-3297,5048,9332,274,523,-1160,3
-3291,4798,8845,169,477,-1345,3
-3291,4798,8845,6,328,-1497,3
-3116,4212,8595,6,328,-1497,3
-3098,3737,8457,-172,122,-1598,3
-2934,3235,8461,-288,-62,-1665,3
-2835,2709,8739,-310,-169,-1711,3
-2565,2365,8817,-246,-202,-1711,3
-2879,2035,9198,-92,-194,-1707,3
-3002,2053,9513,105,-125,-1709,3
-3284,2435,9735,265,-45,-1744,3
-3571,2908,9915,310,8,-1825,3
-3571,2908,9915,310,8,-1825,3
-3744,3237,10000,224,29,-1963,3
-3729,3243,9708,72,47,-2136,3
-3188,2660,9717,-83,60,-2294,3
-2794,1859,9382,-228,77,-2378,3
-2352,552,8842,-322,62,-2346,3
-2129,-376,8724,-330,17,-2192,3
-2258,-752,8636,-283,-35,-1965,3
-2627,-668,8770,-195,-75,-1756,3
-3164,-246,8822,-94,-109,-1613,3
-3164,-246,8822,-94,-109,-1553,3
-3479,95,8983,3,-140,-1553,3
-3559,350,9152,83,-144,-1539,3
-3677,527,9364,139,-127,-1555,3
-3671,655,9431,155,-89,-1599,3
-3471,574,9292,124,-56,-1649,3
-3285,197,9328,61,-38,-1671,3
-3131,-57,9244,-7,-33,-1641,3
-3163,-139,9134,-58,-47,-1579,3
-3267,-55,9028,-75,-65,-1521,3
-3267,-55,9028,-75,-97,-1483,3
-3499,220,9006,-80,-137,-1486,3
-3580,220,8959,-80,-137,-1486,3
-3384,28,9010,-62,-164,-1492,3
-3402,-80,9083,0,-176,-1480,3
-3455,-157,9219,91,-168,-1464,3
-3507,-113,9501,190,-135,-1470,3
-3627,118,9483,248,-100,-1497,3
-3549,200,9486,207,-117,-1534,3
-3445,113,9689,106,-136,-1568,3
-3260,-203,9726,7,-109,-1579,3
-3260,-203,9726,7,-109,-1579,3
-3622,-1205,9320,21,1,-20,3
-3617,-1180,9337,22,-2,-23,3
-3628,-1255,9394,18,0,-25,3
-3675,-1234,9288,10,5,-28,3
-3694,-1178,9221,-1,-1,-34,3
-3652,-1250,9166,-7,-14,-44,3
-3651,-1306,9168,-7,-22,-54,3
-3589,-1420,9133,1,-24,-51,3
-3589,-1420,9133,14,-17,-40,3
-3598,-1415,9104,14,-17,-40,3
-3649,-1256,9275,17,-23,-32,3
-3603,-1219,9494,0,-20,-67,3
-3620,-1609,9274,-4,5,-59,3
-3602,-1647,9235,4,1,-42,3
-3601,-1679,9232,29,9,-20,3
-3601,-1679,9232,29,9,-20,3
-3608,-1716,9304,46,16,-6,3
-3486,-1800,9276,33,7,15,3
-3448,-1942,9265,1,-12,51,3
-3385,-2018,9293,-23,-25,95,3
-3310,-2128,9256,-34,-24,133,3
-3104,-2401,9238,-48,-36,178,3
-3068,-2769,9299,-67,-65,254,3
-2809,-3092,9286,-80,-84,364,3
-2196,-3443,9388,-120,-96,527,3
-2196,-3443,9388,-120,-96,527,3
-2871,-3695,9135,-176,-124,748,3
-2813,-3876,9107,-202,-141,948,3
-2367,-4220,9069,-227,-164,1186,3
-1990,-4670,9038,-263,-215,1545,3
-1660,-5136,9311,-271,-263,1988,3
-969,-6100,9509,-246,-227,2513,3
-358,-6267,9541,-209,-144,3197,3
-489,-5852,9199,-149,-93,3899,3
-434,-4936,9103,-60,-86,4497,3
-434,-4936,9103,-60,-86,4497,3
-436,-3749,9042,39,-106,4943,3
-699,-2337,8944,155,-130,5221,3
-647,-1323,9052,260,-187,5334,3
-515,-786,9269,290,-243,5390,3
-319,27,8886,227,-308,5439,3
-1077,326,9230,164,-397,5447,3
-836,1109,9547,156,-437,5417,3
-1092,2249,9550,207,-367,5319,3
-1306,3730,9131,222,-295,5156,3
-1306,3730,9131,222,-295,5156,3
-1557,5230,8634,134,-309,4893,3
-2537,6489,9148,5,-416,4561,3
-3285,7653,9966,6,-401,4125,3
-4211,9023,10359,119,-217,3549,3
-4819,10047,10094,227,37,2849,3
-5044,10430,9462,194,196,2086,3
-4979,9850,8801,27,156,1335,3
-4430,8614,8810,-122,58,658,3
-3840,7049,8968,-167,12,106,3
-3840,7049,8968,-167,12,106,3
-3475,6130,9125,-84,59,-306,3
-3372,5583,9219,20,113,-621,3
-3139,5127,9287,89,140,-902,3
-2873,4207,9669,148,194,-1118,3
-2663,3516,9671,226,286,-1241,3
-2695,3255,9515,268,331,-1298,3
-2864,3125,9471,256,299,-1337,3
-3026,3054,9603,193,235,-1386,3
-3000,2822,9571,113,178,-1428,3
-3000,2822,9571,113,178,-1428,3
-3017,2507,9475,46,125,-1472,3
-3109,2068,9433,25,82,-1500,3
-3280,1931,9449,50,49,-1510,3
-3317,1940,9485,95,36,-1530,3
-3282,1834,9554,136,43,-1555,3
-3457,1860,9527,148,70,-1574,3
-3504,2258,9515,131,79,-1612,3
-3541,2370,9644,44,61,-1687,3
-3410,2271,9510,-74,43,-1773,3
-3410,2271,9510,-193,28,-1844,3
-3087,1977,9213,-193,28,-1844,3
-2947,1098,9221,-280,18,-1869,3
-2839,573,9364,-276,36,-1825,3
-3010,323,9329,-216,92,-1758,3
-3183,232,9042,-158,135,-1692,3
-3422,279,8941,-98,146,-1653,3
-3395,342,8724,-98,89,-1601,3
-3664,538,8489,-87,-17,-1571,3
-3783,763,8626,-57,-97,-1591,3
-3783,763,8626,-20,-139,-1643,3
-3684,671,8713,-20,-139,-1643,3
-3274,372,8835,15,-155,-1684,3
-3346,-107,9113,49,-139,-1674,3
-3302,-254,9195,61,-108,-1626,3
-3226,-272,9171,34,-88,-1569,3
-3266,-416,9262,-20,-102,-1503,3
-3249,-346,9272,-71,-120,-1426,3
-3562,-166,9419,-70,-121,-1367,3
-3438,-49,9383,-62,-98,-1339,3
-3438,-49,9219,-27,-78,-1334,3
-3634,-7,9219,-27,-78,-1334,3
-3568,0,9184,14,-71,-1351,3
-3638,-171,9184,65,-83,-1368,3
-3632,-159,9379,128,-83,-1378,3
-3680,-86,9507,186,-45,-1400,3
-3769,218,9517,225,1,-1445,3
-3917,204,9353,213,20,-1511,3
-3674,-3,9302,168,12,-1579,3
-3650,-1290,9171,-2,-5,-80,3
-3559,-1465,9132,-3,-13,-103,3
-3523,-1642,9174,0,-18,-102,3
-3492,-1764,9211,9,-18,-80,3
-3485,-1757,9270,14,-11,-53,3
-3485,-1757,9270,9,-2,-37,3
-3541,-1545,9395,9,-2,-37,3
-3530,-1647,9358,13,29,-50,3
-3560,-1852,9205,10,9,3,3
-3501,-1834,9256,9,-6,25,3
-3535,-1904,9281,7,-10,43,3
-3535,-1904,9281,-14,-22,59,3
-3462,-2001,9287,-14,-22,59,3
-3404,-2116,9293,-40,-41,89,3
-3342,-2268,9334,-58,-51,128,3
-3342,-2405,9351,-66,-54,171,3
-3230,-2565,9298,-77,-59,216,3
-3030,-2822,9239,-95,-65,285,3
-3008,-3103,9194,-99,-67,381,3
-2922,-3354,9140,-99,-61,502,3
-2585,-3571,9157,-99,-53,670,3
-2585,-3571,9381,-90,-29,915,3
-2490,-4169,9381,-90,-29,915,3
-4791,-5194,8633,-6,42,1247,3
-1365,-5362,9454,250,94,1595,3
-1856,-5479,9495,398,199,2149,3
16,-5967,8900,454,186,2813,3
-240,-6208,8992,350,35,3576,3
111,-5630,8920,266,-124,4325,3
-214,-4636,8874,208,-299,4978,3
-594,-3342,9008,127,-455,5433,3
-805,-2098,9273,5,-558,5649,3
-805,-2098,9273,5,-558,5649,3
-562,-849,9571,-89,-593,5703,3
-667,84,10010,-144,-551,5647,3
-970,580,10425,-196,-450,5521,3
-308,576,9942,-164,-289,5413,3
-372,470,9178,-50,-208,5408,3
-473,1205,8791,124,-224,5437,3
-463,2419,8137,219,-252,5393,3
-1121,4046,7969,167,-390,5254,3
-2325,5824,8657,75,-638,4957,3
-2325,5824,8657,75,-638,4957,3
-2956,7430,9902,146,-706,4491,3
-3090,9182,10760,379,-449,3935,3
-3879,10268,10809,588,-37,3271,3
-4910,10844,9973,586,268,2532,3
-4993,10727,9315,411,356,1727,3
-4376,9468,9129,147,335,992,3
-4018,7818,8872,-19,313,398,3
-3600,6562,8779,-41,310,-66,3
-3208,5538,8806,34,317,-426,3
-3208,5538,8806,34,317,-426,3
-2839,4868,8865,124,293,-682,3
-2378,4141,9066,165,237,-839,3
-2309,3454,9394,183,174,-905,3
-2354,3160,9718,177,149,-903,3
-2518,3115,9769,138,136,-887,3
-2743,3087,9753,84,114,-890,3
-2853,3224,9792,29,100,-919,3
-2987,3208,9743,-11,109,-967,3
-3192,3432,9661,-34,113,-1027,3
-3192,3432,9661,-34,113,-1027,3
-3274,3656,9596,-24,136,-1120,3
-3451,3708,9607,19,179,-1246,3
-3426,3493,9408,65,216,-1381,3
-3255,3069,9305,89,214,-1499,3
-3022,2539,9321,83,205,-1581,3
-3060,2299,9281,40,188,-1612,3
-3292,2250,9154,-43,138,-1641,3
-3320,2201,9131,-151,82,-1679,3
-3160,1908,8937,-244,38,-1708,3
-3160,1908,8937,-244,38,-1708,3
-3208,1677,8870,-272,6,-1721,3
-3370,1694,9023,-174,28,-1742,3
-3383,1807,8994,-46,54,-1766,3
-3655,2044,8756,70,54,-1811,3
-3856,2181,8880,150,47,-1910,3
-3464,2049,8758,138,38,-2023,3
-3488,1807,8477,78,-14,-2102,3
-3098,1225,8462,-11,-91,-2136,3
-2981,635,8581,-63,-136,-2114,3
-2981,635,8581,-63,-138,-2038,3
-2848,215,8732,-69,-138,-2038,3
-3065,68,8823,-53,-149,-1944,3
-3148,113,8731,-42,-198,-1858,3
-3304,290,9138,-13,-248,-1801,3
-3450,545,9457,33,-242,-1778,3
-3768,751,9451,85,-213,-1811,3
-3649,853,9241,119,-197,-1902,3
-3572,486,9262,139,-210,-1988,3
-3334,43,9420,149,-200,-2024,3
-3334,43,9420,120,-160,-1999,3
-3178,-294,9480,120,-160,-1999,3
-3115,-561,9403,36,-139,-1940,3
-3023,-643,9592,-88,-150,-1852,3
-3164,-549,9747,-204,-149,-1762,3
-3244,-463,9634,-301,-124,-1692,3
-3270,-429,9354,-324,-111,-1656,3
-3273,-401,9192,-274,-96,-1646,3
-3230,-451,9131,-169,-68,-1646,3
-3353,-643,8998,-53,-53,-1641,3
-3353,-643,8998,21,-82,-1629,3
-3276,-887,9071,21,-82,-1629,3
-3817,-820,9497,1,-15,-161,3
-4025,-477,9407,-10,0,-230,3
-4015,-585,9364,11,36,-342,3
-4015,-585,9364,11,36,-342,3
-3834,-806,9165,46,73,-442,3
-3844,-1101,8821,56,61,-497,3
-3755,-1347,8946,48,7,-521,3
-3751,-1355,9158,14,-21,-527,3
-3810,-1387,9164,-36,-36,-544,3
-3800,-1404,9193,-67,-40,-574,3
-3814,-1576,9337,-39,0,-621,3
-3422,-2000,9268,12,64,-640,3
-3586,-2199,9123,89,91,-627,3
-3586,-2199,9123,89,91,-627,3
-3479,-2334,9238,118,92,-596,3
-3457,-2477,9399,117,84,-548,3
-3066,-3268,9245,-8,66,-182,3
-3086,-3504,9233,-14,58,-39,3
-3090,-3680,9148,-66,14,109,3
-3059,-3820,9144,-140,-42,271,3
-3059,-3820,9144,-140,-81,441,3
-2969,-4003,9038,-208,-81,441,3
-2591,-4655,8892,-236,-108,655,3
-2346,-5532,9014,-187,-118,951,3
-1869,-6585,9168,-94,-78,1376,3
-1472,-7514,9196,50,-25,1960,3
-794,-7247,8851,172,14,2650,3
-729,-6557,8471,244,-21,3363,3
-831,-5316,8283,279,-142,3971,3
-733,-4118,8439,254,-289,4429,3
-733,-4118,8439,230,-379,4773,3
-259,-3248,8524,230,-379,4773,3
579,-3065,8589,194,-414,5100,3
543,-2912,8706,168,-459,5494,3
210,-2260,8794,139,-470,5850,3
199,-1383,8939,101,-439,6071,3
-10,-332,8932,25,-437,6163,3
516,808,8732,-87,-493,6159,3
527,1326,8781,-139,-549,6132,3
181,2114,9018,-4,-560,6084,3
181,2114,9018,322,-480,5959,3
-451,3140,9399,322,-480,5959,3
-1771,5034,9907,649,-319,5674,3
-2815,6824,9729,807,-184,5216,3
-3432,8537,9506,817,-139,4627,3
-4091,9937,9634,764,-153,3977,3
-4689,11200,9913,697,-105,3291,3
-4648,11871,9816,576,16,2546,3
-4884,10984,9328,351,70,1773,3
-4432,9796,9227,91,28,1081,3
-3674,8103,9314,-128,-6,516,3
-3674,8103,9314,-128,-6,516,3
-3418,6648,9342,-221,34,98,3
-3158,5949,9131,-203,120,-206,3
-3047,5389,8952,-109,181,-468,3
-3074,5111,9052,14,193,-678,3
-2976,4896,9294,167,224,-883,3
-2605,4448,9445,274,275,-1048,3
-2496,3938,9604,355,317,-1141,3
-2486,3810,9687,400,353,-1177,3
-2621,3783,9668,414,402,-1207,3
-2621,3783,9668,414,443,-1251,3
-2848,3627,9580,401,443,-1251,3
-3028,3682,9262,332,445,-1314,3
-3109,3464,9145,160,337,-1385,3
-2895,3202,9007,-42,191,-1425,3
-3020,2828,8921,-194,64,-1446,3
-3162,2447,9111,-295,-64,-1456,3
-3107,2185,9305,-345,-152,-1433,3
-3327,2319,9547,-354,-169,-1418,3
-3525,2573,9547,-330,-131,-1444,3
-3525,2573,9547,-330,-131,-1444,3
-3694,2904,9555,-306,-92,-1519,3
-3474,2944,9440,-293,-42,-1613,3
-3406,2693,9546,-229,31,-1722,3
-3531,2431,9573,-135,144,-1822,3
-3322,2143,9322,-80,249,-1914,3
-2994,1649,9080,-120,279,-1953,3
-3055,1216,8958,-231,227,-1930,3
-3287,935,8715,-332,166,-1893,3
-3425,922,8618,-406,103,-1849,3
-3425,922,8618,-406,103,-1849,3
-3598,1039,8502,-455,34,-1817,3
-3749,1238,8556,-439,-13,-1815,3
-3638,1294,8596,-387,-20,-1853,3
-3601,1070,8403,-277,-3,-1912,3
-3608,321,8487,-123,16,-1964,3
-3302,-317,8484,44,16,-1945,3
-3274,-611,8400,170,-29,-1863,3
-3317,-398,8721,201,-120,-1762,3
-3649,273,9279,177,-193,-1692,3
-3649,273,9279,177,-193,-1692,3
-3933,805,9613,65,-130,-1762,3
-3943,915,9639,65,-130,-1762,3
-3735,716,9397,-29,-88,-1838,3
-3443,88,9198,-138,-83,-1883,3
-3209,-519,9011,-208,-90,-1853,3
-3244,-774,8818,-227,-97,-1784,3
-3390,-953,8884,-214,-120,-1705,3
-3483,-1006,9164,-168,-119,-1630,3
-3662,-857,9178,-105,-84,-1576,3
-3662,-857,9178,-51,-59,-1549,3
-3667,-815,9165,-51,-59,-1549,3
-3657,-494,9206,-13,-50,-1543,3
-3866,-961,9203,20,13,-136,3
-3943,-802,9083,16,10,-180,3
-4013,-733,9163,14,3,-254,3
-3805,-1098,9080,18,2,-326,3
-3669,-1580,9098,40,4,-357,3
-3503,-1913,9195,54,-2,-336,3
-3519,-1950,9373,51,-2,-284,3
-3622,-1884,9499,22,3,-237,3
-3622,-1884,9499,-12,18,-215,3
-3667,-1684,9529,-12,18,-215,3
-3659,-1726,9463,-32,34,-216,3
-3700,-1820,9293,-19,54,-220,3
-3698,-1971,9142,12,65,-217,3
-3674,-2054,9135,30,56,-207,3
-3541,-2173,9218,14,39,-183,3
-3556,-2246,9117,2,39,-141,3
-3550,-2333,9093,14,44,-100,3
-3455,-2517,9084,32,43,-54,3
-3455,-2517,9084,42,37,2,3
-3346,-2712,9165,42,37,2,3
-3329,-2818,9483,23,14,73,3
-3011,-3136,9903,-34,12,166,3
-2970,-3601,10063,-117,43,316,3
-2909,-3992,9859,-213,78,524,3
-2624,-4546,9626,-283,85,805,3
-2659,-4638,9689,-323,81,1167,3
-2516,-4875,8872,-381,17,1589,3
-2067,-5906,9037,-356,-22,1985,3
-2067,-5906,9162,-210,33,2516,3
-796,-7365,9162,-210,33,2516,3
-399,-7950,8617,-47,55,3284,3
-497,-7329,8269,182,6,4106,3
-530,-6009,8165,379,-86,4794,3
-424,-4365,8266,485,-141,5280,3
-114,-2817,8495,464,-188,5601,3
382,-1692,8610,299,-275,5808,3
587,-1081,9449,56,-360,5977,3
939,-314,9432,-243,-367,6159,3
817,313,8888,-544,-416,6291,3
817,313,8888,-544,-416,6291,3
375,703,8478,-783,-579,6373,3
21,1137,8428,-816,-775,6406,3
-744,2366,8567,-575,-843,6299,3
-2065,4323,9158,-164,-841,5999,3
-3072,6939,10086,262,-737,5520,3
-3969,9665,10587,569,-505,4855,3
-4820,11654,10284,698,-214,4034,3
-5102,12354,9665,605,-23,3109,3
-4837,11782,9297,345,14,2219,3
-4837,11782,9297,345,14,2219,3
-4243,10389,9323,69,-1,1459,3
-3501,8280,9445,-84,59,868,3
-2717,6573,9491,-59,210,449,3
-2444,5471,9302,114,417,175,3
-2483,5107,9152,306,577,-16,3
-2787,5242,8882,420,617,-171,3
-3174,5259,8793,415,521,-331,3
-3320,5444,9040,346,375,-515,3
-3637,5570,9387,238,254,-706,3
-3637,5570,9387,238,254,-706,3
-3445,5393,9455,145,206,-918,3
-3536,4904,9556,91,200,-1130,3
-3229,4339,9437,47,183,-1301,3
-3071,3750,9342,-1,131,-1419,3
-2867,3251,9387,-53,98,-1491,3
-2824,2909,9242,-103,61,-1500,3
-2912,2849,9139,-138,19,-1501,3
-3226,2695,9028,-131,0,-1525,3
-3438,2702,9001,-117,-50,-1567,3
-3438,2702,9001,-117,-50,-1567,3
-3377,2676,8982,-56,-89,-1621,3
-3525,2648,9217,69,-72,-1688,3
-3661,2973,9589,219,-10,-1777,3
-3686,3092,9664,306,47,-1877,3
-3574,2913,9567,288,82,-1994,3
-3382,2513,9336,169,73,-2097,3
-3122,2124,9007,2,18,-2152,3
-3111,1731,8794,-154,-65,-2167,3
-3114,1558,8617,-289,-152,-2174,3
-3114,1558,8617,-289,-152,-2174,3
-3284,1217,8554,-369,-217,-2181,3
-2912,917,8652,-370,-230,-2165,3
-3061,472,8705,-300,-200,-2111,3
-3128,167,8679,-167,-161,-2054,3
-3237,-50,8671,-23,-115,-1992,3
-3171,-202,8586,109,-92,-1927,3
-3280,-272,8433,211,-99,-1858,3
-3594,-215,8501,267,-177,-1800,3
-3298,-210,9032,271,-266,-1753,3
-3298,-210,9032,271,-274,-1704,3
-3416,66,9718,254,-274,-1704,3
-3455,161,9851,182,-216,-1678,3
-3494,102,9939,56,-181,-1667,3
-3537,11,9960,-94,-171,-1651,3
-3473,-302,9839,-221,-144,-1623,3
-3351,-691,9503,-282,-94,-1575,3
-3370,-967,9141,-278,-80,-1484,3
-3491,-766,9064,-223,-105,-1395,3
-3570,-616,9211,-135,-100,-1334,3
-3570,-616,9211,-20,-51,-1308,3
-3574,-559,9108,-20,-51,-1308,3
-3615,-565,9081,94,-11,-1287,3
-3588,-270,9145,207,1,-1265,3
-3873,133,9205,286,4,-1271,3
-3597,-1332,9489,-9,24,-41,3
-3595,-1405,9395,-11,31,-37,3
-3578,-1430,9306,-8,26,-29,3
-3629,-1415,9326,-17,12,-25,3
-3550,-1536,9226,-28,14,-22,3
-3604,-1581,9127,-24,21,-12,3
-3553,-1609,9099,-2,18,0,3
-3582,-1683,9121,16,12,23,3
-3628,-1724,9178,29,-1,40,3
-3628,-1724,9178,19,-4,61,3
-3395,-1793,9273,19,-4,61,3
-3446,-1862,9251,-4,0,96,3
-3475,-1860,9205,-16,-1,131,3
-3425,-1903,9266,-38,-24,160,3
-3383,-2033,9297,-58,-35,187,3
-3305,-2176,9382,-83,-39,221,3
-3223,-2354,9458,-107,-32,274,3
-3215,-2510,9452,-138,-13,346,3
-3196,-2501,9201,-171,1,430,3
-3196,-2501,9201,-216,-15,516,3
-3140,-2639,9093,-216,-15,516,3
-2988,-2997,8946,-249,-47,637,3
-2712,-4431,9200,-223,-70,831,3
-1929,-6514,9608,-85,-36,1192,3
-638,-7962,10145,111,96,1827,3
-166,-7776,9400,211,233,2682,3
-19,-6892,8402,152,145,3534,3
-512,-5557,8846,75,-53,4222,3
-303,-4047,9177,-69,-141,4692,3
-303,-4047,8847,-200,-189,5012,3
-120,-3254,8847,-200,-189,5012,3
-86,-2949,9000,-213,-281,5291,3
562,-2964,9239,-56,-268,5579,3
571,-2493,9515,256,-102,5848,3
659,-1445,9456,552,113,6058,3
512,-165,9268,692,211,6188,3
108,1027,9269,719,188,6218,3
-404,2530,9327,723,180,6130,3
-1060,4286,9053,687,185,5916,3
-1512,6040,8701,523,121,5589,3
-1512,6040,8701,523,121,5589,3
-2033,7603,8425,227,-70,5188,3
-3030,8997,8689,-69,-311,4737,3
-3993,10488,9503,-153,-405,4211,3
-4534,11721,9856,-6,-166,3557,3
-5199,12417,9062,136,177,2762,3
-5763,12192,7884,68,252,1913,3
-4618,10747,7800,-128,46,1109,3
-3724,8968,8140,-235,-67,490,3
-3358,7233,8177,-199,-40,26,3
-3358,7233,8177,-199,-40,26,3
-2925,6038,8172,-81,-1,-300,3
-2577,5113,8447,33,-9,-522,3
-2462,4411,8809,117,-51,-664,3
-2325,3503,9390,174,-70,-743,3
-2518,3062,9893,224,-31,-770,3
-2664,2848,10094,240,39,-772,3
-2836,2901,10125,205,94,-764,3
-3125,3263,10003,160,136,-764,3
-3655,3877,9948,150,169,-811,3
-3655,3877,9948,150,169,-811,3
-3978,4496,9678,147,209,-952,3
-3951,4802,9275,109,204,-1153,3
-3741,4645,9154,55,140,-1376,3
-3231,4400,9275,-4,107,-1565,3
-2977,3527,9101,-47,106,-1665,3
-2548,2713,8879,-94,72,-1677,3
-2392,1968,9008,-149,29,-1647,3
-2772,1617,8812,-200,-12,-1547,3
-3065,1623,8945,-220,-83,-1458,3
-3065,1623,8945,-220,-83,-1458,3
-3436,2166,9084,-180,-124,-1412,3
-3797,2806,9205,-101,-118,-1443,3
-4080,3268,9061,1,-76,-1555,3
-4354,3633,8876,95,-31,-1745,3
-3976,3772,8657,110,-33,-1963,3
-3538,3527,8758,64,-76,-2166,3
-3337,2769,9046,0,-87,-2304,3
-3001,2008,9040,-33,-36,-2388,3
-2687,1271,8885,-84,-13,-2393,3
-2630,595,8705,-188,-68,-2317,3
-3434,446,9048,-178,-268,-1793,3
-3389,656,9169,-26,-232,-1753,3
-3765,818,9050,143,-159,-1784,3
-3579,531,8973,273,-125,-1841,3
-3300,222,9069,348,-129,-1847,3
-3300,222,9069,348,-129,-1814,3
-3352,110,9156,364,-161,-1814,3
-3309,9,9412,312,-179,-1770,3
-3427,157,9628,222,-186,-1711,3
-3503,339,9757,94,-185,-1673,3
-3418,311,9681,-45,-158,-1659,3
-3322,39,9445,-153,-141,-1641,3
-3434,-150,9287,-205,-150,-1599,3
-3410,-282,9176,-193,-158,-1555,3
-3245,-424,9181,-127,-142,-1510,3
-3245,-424,9181,-30,-113,-1456,3
-3267,-592,9273,-30,-113,-1456,3
-3473,-498,9243,76,-76,-1399,3
-3470,-398,9291,175,-51,-1354,3
-3546,-125,9434,238,-34,-1327,3
-3711,102,9499,262,-7,-1334,3
-3879,312,9312,235,3,-1382,3
-3809,439,9327,156,-24,-1459,3
-3602,-1365,9410,21,-16,-34,3
-3683,-1330,9440,17,-5,-28,3
-3708,-1243,9390,10,6,-29,3
-3705,-1225,9318,-2,2,-37,3
-3742,-1213,9282,-10,-1,-47,3
-3722,-1316,9270,-7,4,-55,3
-3722,-1316,9270,4,9,-52,3
-3690,-1434,9217,4,9,-52,3
-3698,-1467,9251,12,8,-40,3
-3640,-1518,9279,11,4,-22,3
-3650,-1581,9261,12,9,-3,3
-3622,-1637,9235,1,12,15,3
-3541,-1779,9186,-8,6,40,3
-3494,-1829,9257,-5,-5,66,3
-3521,-1941,9438,8,-2,95,3
-3488,-2049,9537,9,2,123,3
-3488,-2049,9537,-4,9,156,3
-3501,-2195,9531,-4,9,156,3
-3229,-2340,9483,-37,17,200,3
-3199,-2472,9322,-78,10,272,3
-3128,-2800,9087,-130,-42,353,3
-2751,-3371,9096,-175,-99,464,3
-2262,-4287,9451,-191,-117,669,3
-2239,-5953,9590,-186,-98,1068,3
-1639,-7337,9595,-39,-44,1609,3
-830,-7752,9816,99,90,2280,3
-800,-7259,9219,244,199,3029,3
-800,-7259,9219,244,199,3029,3
-367,-6032,9121,373,206,3706,3
211,-5507,9146,427,189,4305,3
916,-5029,9352,435,213,4893,3
570,-4098,8969,346,265,5461,3
-80,-2628,8133,202,191,5877,3
-153,-1347,8292,71,-4,6078,3
-93,-52,9280,-40,-147,6148,3
-470,1570,9681,-186,-176,6103,3
-733,2591,10101,-329,-154,5940,3
-733,2591,10101,-329,-154,5940,3
-1026,3126,10375,-376,-61,5707,3
-1253,3395,10345,-299,109,5484,3
-1119,3363,10101,-153,267,5294,3
-1194,3852,10059,-43,372,5147,3
-1482,5257,9932,-4,450,4990,3
-2374,7177,9312,-67,538,4721,3
-3365,8414,8429,-249,492,4279,3
-3836,8868,8372,-400,332,3737,3
-4101,9032,8414,-418,242,3175,3
-4101,9032,8414,-418,242,3175,3
-4230,9044,8189,-318,252,2610,3
-4180,9121,7860,-196,261,2059,3
-4042,8915,7585,-131,198,1535,3
-3787,8354,7761,-96,102,1049,3
-3308,7837,7999,-69,23,640,3
-3032,7287,8327,-16,-33,295,3
-2939,6794,8642,51,-53,9,3
-2896,6466,8872,136,-31,-243,3
-2965,5877,9123,208,14,-472,3
-3383,4753,9180,205,-97,-1172,3
-3565,4772,9358,205,-97,-1172,3
-3477,4644,9347,210,-95,-1338,3
-3438,4110,9255,243,-92,-1496,3
-3305,3743,9302,257,-108,-1613,3
-3282,3420,9224,247,-149,-1687,3
-3282,3420,9224,247,-149,-1687,3
-3406,3255,9324,225,-174,-1745,3
-3288,3195,9202,158,-203,-1797,3
-3388,3469,9274,98,-269,-1838,3
-3268,3822,9466,86,-268,-1923,3
-3300,3524,9509,105,-179,-2036,3
-3145,3125,9432,122,-97,-2126,3
-3089,2697,9247,111,-51,-2191,3
-3052,2478,9105,47,-37,-2228,3
-3162,2410,8997,-40,-51,-2252,3
-3162,2410,8997,-40,-51,-2252,3
-3326,2306,8916,-133,-83,-2280,3
-3476,2496,8981,-218,-114,-2330,3
-3669,2611,8975,-282,-137,-2414,3
-3468,2242,8697,-331,-135,-2522,3
-3434,1598,8800,-306,-125,-2624,3
-3062,897,8614,-262,-95,-2653,3
-2956,508,8248,-215,-105,-2615,3
-2933,88,8013,-188,-193,-2537,3
-2847,-242,8124,-172,-330,-2427,3
-2847,-242,8124,-129,-423,-2293,3
-2628,-577,8481,-129,-423,-2293,3
-2812,-795,9024,-43,-422,-2144,3
-3048,-585,9452,65,-370,-2001,3
-3379,-129,9757,141,-310,-1913,3
-3607,501,10237,169,-220,-1902,3
-3762,675,10254,144,-104,-1955,3
-3637,425,9805,76,-12,-2037,3
-3431,-49,9361,-26,-10,-2089,3
-3122,-652,9060,-136,-73,-2073,3
-2854,-1367,8865,-199,-140,-1980,3
-2854,-1367,8865,-199,-140,-1980,3
-2732,-1755,8860,-201,-192,-1819,3
-3028,-1471,9144,-155,-237,-1625,3
-3329,-1103,9390,-86,-234,-1483,3
-3426,-939,9499,-10,-169,-1412,3
-3391,-887,9438,42,-105,-1355,3
-3485,-708,9493,60,-84,-1303,3
-3462,-602,9607,60,-69,-1276,3
-3571,-453,9689,64,-16,-1274,3
-3571,-453,9689,76,45,-1290,3
-3554,-1441,9332,13,-44,-125,3
-3607,-1578,9460,5,-46,-110,3
-3492,-1686,9547,-5,-33,-89,3
-3522,-1707,9440,-23,-22,-54,3
-3519,-1732,9432,-32,-19,-21,3
-3492,-1750,9377,-21,-8,14,3
-3527,-1802,9317,-10,-3,47,3
-3527,-1802,9317,-21,-7,92,3
-3413,-1800,9360,-21,-7,92,3
-3347,-1878,9422,-42,-3,158,3
-3385,-1932,9369,-64,5,244,3
-3176,-1883,9200,-96,-4,357,3
-3243,-2039,9054,-119,-18,488,3
-2977,-2084,9159,-142,-46,610,3
-2933,-2305,9175,-170,-43,749,3
-2717,-3105,9227,-170,-65,935,3
-2472,-4011,9549,-171,-75,1199,3
-2472,-4011,9725,-166,-36,1587,3
-2335,-4599,9725,-166,-36,1587,3
-2210,-5276,9564,-156,0,2059,3
-1797,-5864,9975,-106,9,2561,3
-1133,-6056,9970,-122,7,3128,3
-111,-4686,9317,89,55,4756,3
-111,-4686,9317,89,55,4756,3
457,-4096,8665,160,-26,5225,3
582,-3597,7777,256,-153,5660,3
-246,-2472,7564,372,-335,5974,3
-246,-2472,7564,372,-335,5974,3
-394,-854,8325,420,-463,6094,3
-218,547,8088,295,-524,6070,3
-915,1636,7791,103,-686,5980,3
-1087,2234,8395,21,-897,5843,3
-831,2864,9339,120,-932,5625,3
-854,3760,10080,361,-777,5399,3
-1454,5150,10363,579,-575,5108,3
-2493,7165,10606,706,-372,4703,3
-3692,9373,11324,786,-124,4155,3
-4022,9449,8851,-414,372,1278,3
-4022,9449,8851,-414,372,1278,3
-3689,7838,8142,-536,339,750,3
-3509,6699,8142,-439,336,340,3
-3621,6720,8129,-290,363,-5,3
-3783,6583,7953,-181,350,-371,3
-3099,5820,8106,-152,260,-696,3
-3099,5820,8106,-152,260,-696,3
-2551,4786,8042,-136,158,-903,3
-2445,3525,8392,-69,83,-981,3
-2248,2493,8766,75,62,-1004,3
-1976,1734,9317,235,75,-964,3
-2315,1700,9668,328,80,-871,3
-2379,1830,10210,293,46,-788,3
-2535,1972,10523,169,48,-707,3
-2751,2172,10290,34,100,-649,3
-2914,2210,9824,-119,113,-605,3
-2914,2210,9824,-119,113,-605,3
-3090,2111,9369,-225,61,-574,3
-3353,2149,9480,-213,20,-566,3
-3443,2335,9457,-98,51,-589,3
-3567,2737,9226,4,82,-642,3
-3720,3242,9007,29,39,-731,3
-3850,3580,9036,-1,-37,-860,3
-3299,3513,9171,0,-60,-1028,3
-3383,3186,9361,21,-32,-1164,3
-3318,3152,9306,59,3,-1274,3
-3318,3152,9306,59,3,-1274,3
-3321,3190,9475,72,28,-1387,3
-3364,3232,9857,84,103,-1497,3
-3607,3509,10076,131,237,-1619,3
-3789,3876,9797,94,340,-1773,3
-4054,4419,9479,15,350,-1978,3
-4024,4545,9129,-124,320,-2239,3
-3590,4243,8705,-310,270,-2510,3
-3409,3123,8294,-426,226,-2731,3
-2407,2001,7960,-488,153,-2830,3
-2407,2001,7960,-488,48,-2784,3
-2184,632,7783,-456,48,-2784,3
-2072,-480,7980,-368,-65,-2621,3
-2025,-1195,8212,-264,-148,-2384,3
-2449,-1435,8543,-185,-211,-2116,3
-2965,-1211,9042,-95,-232,-1905,3
-3434,-561,9427,-23,-211,-1770,3
-3787,138,9658,40,-158,-1737,3
-3988,881,9925,94,-101,-1800,3
-4252,1475,9598,116,-41,-1954,3
-4252,1475,9598,95,-16,-2161,3
-3976,1467,9324,95,-16,-2161,3
-3463,764,9281,2,-49,-2321,3
-2998,-147,9255,-112,-76,-2373,3
-2618,-933,9016,-199,-80,-2314,3
-2641,-1406,8835,-273,-118,-2168,3
-2653,-1709,8955,-322,-197,-1973,3
-2896,-1348,9497,-318,-224,-1788,3
-3437,-643,9750,-262,-165,-1685,3
-3733,-46,9577,-191,-72,-1706,3
-3733,-46,9577,-127,-3,-1809,3
-3565,-122,8853,-80,3,-1923,3
-3565,-122,8853,-80,3,-1923,3
-3235,-701,8519,-37,-43,-1983,3
-3072,-1278,8636,6,-127,-1980,3
-2867,-1695,8914,62,-172,-1916,3
-2858,-1904,9032,108,-177,-1811,3
-3019,-2054,9365,119,-175,-1695,3
-2940,-2333,9501,91,-163,-1574,3
-2730,-2496,9637,61,-142,-1415,3
-3536,-1680,9318,14,37,-8,3
-3554,-1688,9288,20,32,11,3
-3603,-1678,9320,23,36,29,3
-3615,-1609,9263,20,34,41,3
-3611,-1694,9200,1,28,54,3
-3552,-1765,9104,-15,15,73,3
-3509,-1811,9068,-19,9,89,3
-3509,-1811,9068,-10,6,111,3
-3540,-1828,8988,-10,6,111,3
-3467,-1814,8981,-6,-1,129,3
-3427,-1905,8981,-7,-15,164,3
-3424,-1968,9019,-18,-37,214,3
-3235,-2110,9058,-36,-53,277,3
-3122,-2329,9233,-41,-62,365,3
-3067,-2549,9268,-48,-72,497,3
-2921,-2986,9428,-65,-100,664,3
-2488,-4132,9725,-86,-103,929,3
-2417,-4804,9675,-64,-70,1300,3
-2417,-4804,9675,-64,-70,1300,3
-2141,-5212,9580,-29,-43,1733,3
-1872,-5157,9574,-12,-45,2200,3
-1755,-4936,9902,-36,-54,2652,3
-1215,-4651,9711,-86,-21,3116,3
-1069,-4706,9757,-134,-38,3575,3
-278,-4540,9620,-136,-47,4080,3
-468,-4319,9294,-30,-26,4572,3
-593,-4036,8941,136,-6,4993,3
-698,-3187,8545,313,-75,5313,3
-698,-3187,8545,313,-75,5313,3
204,-2261,8432,459,-149,5530,3
746,-1010,7817,518,-165,5726,3
-71,71,7451,417,-313,5879,3
-46,573,8274,301,-605,5960,3
-21,1003,9939,313,-742,6027,3
-221,1974,9944,354,-621,6056,3
-301,3420,9438,339,-505,5937,3
-1567,4645,9792,259,-503,5689,3
-1868,6185,10459,249,-459,5310,3
-1868,6185,10459,249,-459,5310,3
-2793,7817,11206,310,-274,4806,3
-2331,9683,11857,378,36,4218,3
-3714,11885,10600,241,375,3590,3
-5620,13070,9150,-116,414,2798,3
-5240,12368,8800,-412,301,1890,3
-4575,10869,8128,-474,304,1047,3
-4006,9537,7446,-346,339,370,3
-3844,8673,7205,-178,293,-218,3
-3200,7470,7306,-53,199,-710,3
-3200,7470,7306,-53,199,-710,3
-2700,6276,7785,25,93,-1078,3
-2549,5075,8700,89,-4,-1315,3
-1976,3973,9466,130,-29,-1464,3
-2164,3188,9957,191,1,-1517,3
-2402,2941,10582,254,99,-1514,3
-2774,3075,10669,266,249,-1521,3
-2930,3341,10248,201,337,-1567,3
-2993,3206,10155,103,330,-1633,3
-3229,3369,10174,63,317,-1694,3
-3229,3369,10174,63,317,-1694,3
-3237,3255,9812,68,368,-1782,3
-3205,2743,9176,76,407,-1877,3
-3857,2182,8750,139,359,-1949,3
-2951,1846,8886,162,262,-1976,3
-2572,1396,8895,113,165,-1932,3
-2621,1098,8799,47,89,-1813,3
-2938,1301,8666,-21,9,-1673,3
-3468,1487,8593,-95,-82,-1609,3
-3497,1676,8761,-141,-163,-1603,3
-3497,1676,8761,-141,-163,-1603,3
-3213,1651,9005,-131,-171,-1621,3
-3391,1445,9178,-75,-108,-1628,3
-3455,1581,9117,6,-15,-1632,3
-3621,1696,9139,59,54,-1667,3
-3477,1441,9050,72,108,-1718,3
-3498,1257,8866,55,135,-1745,3
-3486,1160,8616,13,110,-1762,3
-3460,1107,8590,-33,57,-1766,3
-3651,1147,8646,-64,9,-1767,3
-3651,1147,8646,-85,-23,-1774,3
-3617,1075,8453,-85,-23,-1774,3
-3759,967,8475,-94,-86,-1783,3
-3719,1013,8657,-92,-153,-1784,3
-3731,1129,8835,-101,-194,-1809,3
-3942,1312,8790,-116,-216,-1852,3
-3951,1363,8828,-117,-242,-1953,3
-3537,878,9087,-111,-256,-2051,3
-3512,547,9193,-34,-216,-2095,3
-3233,83,9212,83,-145,-2111,3
-3233,83,9212,175,-102,-2066,3
-3353,-374,9193,175,-102,-2066,3
-3395,-416,9069,208,-96,-2016,3
-3254,-777,9163,163,-124,-1952,3
-3001,-1007,9373,77,-169,-1841,3
-3041,-1213,9416,-26,-191,-1706,3
-3251,-1118,9574,-103,-188,-1567,3
-3400,-1076,9613,-150,-177,-1462,3
-3498,-983,9690,-159,-155,-1390,3
-3755,-425,9603,-128,-116,-1356,3
-3755,-425,9564,-108,-99,-1397,3
-3985,-27,9564,-108,-99,-1397,3
-3872,-105,9403,-95,-75,-1483,3
-3306,-634,9171,-77,-52,-1544,3
-3141,-1316,9116,-38,-35,-1514,3
-3194,-1545,8952,16,-49,-1411,3
-3615,-1324,9535,2,-18,-87,3
-3574,-1472,9544,0,-4,-79,3
-3572,-1536,9483,3,12,-58,3
-3562,-1482,9381,9,28,-35,3
-3562,-1482,9381,9,28,-35,3
-3643,-1369,9334,6,36,-20,3
-3653,-1306,9364,3,36,-12,3
-3742,-1164,9383,1,45,-23,3
-3769,-1142,9209,0,56,-47,3
-3732,-1211,9107,-4,46,-70,3
-3672,-1384,9074,-7,26,-79,3
-3615,-1526,9127,-11,7,-71,3
-3580,-1570,9138,-13,-5,-50,3
-3556,-1648,9181,-14,-9,-21,3
-3556,-1648,9181,-14,-9,-21,3
-3565,-1649,9145,-9,-9,4,3
-3571,-1688,9119,-6,-12,29,3
-3504,-1783,9133,-15,-28,61,3
-3462,-1822,9174,-18,-29,106,3
-3479,-1763,9196,-3,-14,161,3
-3488,-1678,9139,15,4,210,3
-3527,-1661,9058,31,7,257,3
-3544,-1719,8964,24,-21,306,3
-3469,-2053,8968,6,-67,372,3
-3469,-2053,8968,3,-94,496,3
-3195,-3104,8967,3,-94,496,3
-2163,-4874,9268,37,-97,781,3
-1176,-6233,9699,57,-106,1365,3
-110,-7676,9942,30,-120,2205,3
404,-8289,10278,-9,-165,3148,3
247,-7323,10248,119,-74,4039,3
289,-6507,10018,216,69,4770,3
175,-5335,9745,325,109,5365,3
751,-3601,9550,445,116,5800,3
751,-3601,9550,445,116,6049,3
147,-1954,8848,598,161,6049,3
-447,-221,8628,660,131,6131,3
-824,1773,8580,481,-13,6057,3
-1393,3468,8494,108,-211,5830,3
-1745,4163,8578,-256,-425,5519,3
-2177,4158,9261,-437,-549,5218,3
-2091,4516,9297,-337,-483,4928,3
-2465,5027,9436,-26,-279,4608,3
-2868,6312,9586,246,-83,4238,3
-2868,6312,9586,338,7,3790,3
-3580,7488,9725,338,7,3790,3
-4045,8301,9584,293,58,3260,3
-4481,8685,9512,207,88,2676,3
-4747,8726,9381,100,104,2067,3
-4463,8245,9343,-1,113,1478,3
-4917,7496,8903,-81,142,960,3
-4405,6916,8852,-86,146,488,3
-4104,6025,8690,-69,188,64,3
-3821,5395,8640,-14,250,-292,3
-3821,5395,8640,37,256,-544,3
-3540,4563,8630,76,229,-723,3
-3241,3934,8702,76,229,-723,3
-3104,3242,8981,111,206,-840,3
-3115,3117,9282,132,194,-910,3
-3071,3032,9588,125,204,-957,3
-2963,3004,9611,69,216,-987,3
-3125,3203,9485,-12,205,-1007,3
-3678,3406,9075,-99,155,-1058,3
-3693,3588,9050,-160,79,-1156,3
-3698,3588,9058,-177,43,-1274,3
-3698,3588,9058,-177,43,-1274,3
-3582,3729,9089,-160,26,-1389,3
-3790,3909,9244,-103,18,-1513,3
-3509,3856,9492,-25,75,-1647,3
-3531,3428,9531,40,171,-1784,3
-3292,2902,9337,69,240,-1893,3
-3133,2404,9220,36,226,-1951,3
-3226,2098,9169,-42,147,-1970,3
-3797,2389,9176,-108,17,-2306,3
-3683,1941,8907,-108,17,-2306,3
-3310,1274,8421,-9,50,-2395,3
-3157,525,8352,83,23,-2420,3
-2994,81,8400,116,-35,-2367,3
-2938,-124,8528,85,-109,-2276,3
-3109,-148,8888,22,-181,-2178,3
-3609,16,9323,2,-153,-2125,3
-3609,16,9323,2,-153,-2125,3
-3340,90,9363,-68,-107,-2081,3
-3570,25,9023,-130,-119,-2048,3
-3342,-131,9055,-158,-119,-2036,3
-3376,-314,8811,-155,-118,-2020,3
-3215,-608,8904,-123,-143,-1989,3
-3351,-699,9038,-40,-133,-1943,3
-3370,-689,9006,68,-95,-1905,3
-3421,-672,8910,149,-79,-1875,3
-3436,-715,8969,182,-105,-1839,3
-3436,-715,8969,177,-139,-1791,3
-3359,-891,9024,177,-139,-1791,3
-3226,-1148,9157,154,-155,-1728,3
-3259,-1328,9329,131,-152,-1645,3
-3339,-1100,9440,109,-129,-1568,3
-3568,-985,9585,50,-114,-1526,3
-3540,-912,9619,-30,-98,-1510,3
-3528,-1071,9550,-106,-75,-1508,3
-3461,-1198,9431,-167,-58,-1494,3
-3355,-1347,9351,-206,-53,-1457,3
-3355,-1347,9351,-206,-53,-1457,3
-3232,-1661,9253,-221,-44,-1397,3
-3077,-2084,9073,-207,-31,-1305,3
-3789,-1286,9217,7,9,-15,3
-3700,-1342,9133,20,19,-21,3
-3698,-1418,9109,28,19,-18,3
-3687,-1503,9170,28,4,-7,3
-3662,-1598,9219,13,-8,9,3
-3631,-1631,9328,-11,-18,29,3
-3591,-1731,9306,-25,-21,59,3
-3617,-1743,9290,-24,-17,92,3
-3621,-1664,9195,-16,-14,123,3
-3541,-1686,9131,-7,-16,148,3
-3541,-1686,9131,-7,-16,148,3
-3367,-1946,9125,-1,-18,189,3
-3375,-2117,9280,5,-20,262,3
-3318,-2007,9316,7,-18,360,3
-3120,-1832,9486,-31,-31,459,3
-3322,-2065,9361,-113,-50,588,3
-3060,-2319,9286,-161,-78,770,3
-2706,-3008,8983,-167,-84,1016,3
-2450,-3804,9160,-172,-103,1362,3
-1415,-5233,8721,-81,-146,1795,3
-1415,-5233,8721,-81,-146,1795,3
-1144,-6781,9220,138,-96,2339,3
-524,-7450,9460,419,17,3106,3
-72,-7153,9687,764,149,3935,3
-509,-6198,9683,1015,296,4648,3
-629,-4673,9617,978,288,5178,3
-443,-3189,10240,735,150,5517,3
-323,-1838,10662,366,59,5714,3
-665,-413,10797,23,37,5780,3
-829,658,10766,-199,92,5736,3
-829,658,10766,-199,92,5654,3
-1240,1396,10362,-270,198,5654,3
-1083,2092,9404,-218,310,5551,3
-1189,3024,8410,-128,357,5425,3
-1040,3838,7423,-105,314,5263,3
-1780,4482,7249,-87,183,5070,3
-2701,5706,7439,-26,42,4792,3
-3303,7098,7891,61,-35,4368,3
-3833,8239,8347,147,-51,3864,3
-4146,9148,8571,241,-18,3303,3
-4146,9148,8571,292,86,2718,3
-4607,10001,8812,292,86,2718,3
-4327,9973,8610,219,165,2087,3
-4771,9312,8483,113,160,1499,3
-4331,8831,8812,54,158,963,3
-4174,7950,8894,4,218,478,3
-3866,7066,8857,-17,271,56,3
-3616,6421,8755,-23,290,-306,3
-3077,5632,8561,-28,276,-560,3
-2835,4953,8565,-25,226,-718,3
-2835,4953,8565,-34,149,-811,3
-2743,4273,8543,-34,149,-811,3
-2770,3799,8645,-26,67,-863,3
-2707,3268,8718,-1,0,-888,3
-2915,3507,9005,54,-22,-907,3
-3243,3814,8919,116,-40,-907,3
-3704,4558,9090,164,-82,-957,3
-3973,4925,9220,207,-98,-1100,3
-3796,5081,9154,216,-96,-1294,3
-3041,3538,9208,32,-107,-1795,3
-3041,3538,9208,32,-107,-1795,3
-3047,3339,9265,-23,-117,-1842,3
-3131,3158,9408,-73,-110,-1889,3
-3151,3046,9328,-117,-101,-1929,3
-3286,2836,9381,-152,-98,-1965,3
-3135,2627,9253,-172,-84,-2006,3
-3221,1941,9247,-177,-54,-2045,3
-3223,1563,9075,-153,-26,-2048,3
-3223,1563,9075,-153,-26,-2048,3
-3409,1414,8788,-123,-18,-2034,3
-3589,1375,8639,-93,-38,-2020,3
-3655,1426,8610,-72,-80,-2025,3
-3590,1533,8566,-58,-117,-2039,3
-3428,1458,8573,-25,-136,-2067,3
-3187,964,8573,41,-135,-2075,3
-3013,217,8761,129,-122,-2023,3
-3067,-46,8833,196,-120,-1905,3
-3342,22,8963,191,-149,-1783,3
-3342,22,8963,191,-149,-1783,3
-3559,256,9172,122,-202,-1685,3
-3800,575,9199,35,-246,-1621,3
-3932,969,9341,-47,-271,-1627,3
-4124,1243,9437,-111,-279,-1676,3
-4080,1488,9324,-107,-241,-1770,3
-3943,1148,9175,-62,-172,-1896,3
-3614,594,9090,-1,-120,-1977,3
-3412,52,8853,45,-103,-1985,3
-3256,-281,8799,71,-122,-1933,3
-3256,-281,8799,71,-122,-1933,3
-3266,-381,8965,70,-155,-1853,3
-3326,-460,9169,61,-167,-1755,3
-3444,-295,9366,52,-151,-1665,3
-3716,99,9378,35,-132,-1612,3
-3891,311,9424,4,-122,-1614,3
-3798,413,9519,-24,-125,-1663,3
-3623,305,9689,-50,-92,-1714,3
-3626,120,9571,-77,-40,-1753,3
-3389,-318,9424,-91,9,-1760,3
-3389,-318,9424,-91,9,-1760,3
-3565,-632,9232,-102,18,-1748,3
-3528,-788,8979,-116,-10,-1712,3
-3358,-1162,8937,-139,-66,-1650,3
-3396,-1226,8987,-141,-106,-1560,3
-3787,-893,8950,-134,-133,-1487,3
-3634,-1319,9195,-4,-43,3,3
-3718,-1312,9158,-2,-50,6,3
-3681,-1272,9203,0,-51,7,3
-3772,-1195,9293,4,-48,-1,3
-3811,-1179,9329,4,-43,-20,3
-3779,-1263,9413,0,-45,-45,3
-3670,-1420,9462,-4,-47,-60,3
-3670,-1420,9462,-4,-47,-60,3
-3680,-1556,9523,-6,-37,-56,3
-3645,-1640,9570,0,-12,-39,3
-3652,-1631,9505,7,9,-10,3
-3674,-1622,9404,35,28,13,3
-3657,-1527,9346,39,29,31,3
-3759,-1491,9381,9,13,38,3
-3669,-1639,9358,-25,4,39,3
-3616,-1712,9300,-41,4,54,3
-3602,-1829,9249,-33,10,76,3
-3602,-1829,9249,-33,7,107,3
-3554,-1996,9238,-27,7,107,3
-3475,-2081,9290,-17,-1,151,3
-3372,-2255,9413,-23,-10,204,3
-3207,-2602,9564,-28,4,283,3
-2865,-3460,9711,-32,40,437,3
-2275,-5051,10112,-20,91,729,3
-798,-6262,10675,-11,200,1246,3
-652,-6981,8951,-125,212,4181,3
-652,-6981,8951,-125,212,4181,3
28,-6393,9090,-120,63,4784,3
732,-5901,9695,-10,54,5313,3
836,-4747,9751,142,188,5833,3
1027,-3375,8906,251,274,6260,3
1188,-2120,8343,262,208,6572,3
713,-392,8127,158,51,6760,3
412,1050,8354,-62,-167,6775,3
412,1050,8354,-183,-341,6671,3
-163,2122,8621,-183,-341,6671,3
-667,3535,8568,-135,-379,6474,3
-1306,5085,8694,-3,-321,6153,3
-2362,7552,8853,53,-305,5739,3
-3653,10089,9412,55,-294,5165,3
-4839,12336,9710,141,-130,4429,3
-5544,13980,9119,218,138,3536,3
-5972,14165,8106,103,268,2550,3
-5535,12760,7527,-156,145,1569,3
-4382,10357,7895,-355,-22,750,3
-4382,10357,7895,-355,-22,750,3
-2634,5693,8128,-110,104,-522,3
-2346,4851,8597,72,135,-732,3
-2350,4386,9050,202,156,-842,3
-2793,4360,9332,297,178,-908,3
-3188,4508,9576,324,197,-999,3
-3452,4447,9603,262,177,-1118,3
-3525,4405,9766,144,109,-1243,3
-3525,4405,9766,144,109,-1243,3
-3711,4493,9810,37,55,-1370,3
-3665,4169,9873,-14,46,-1513,3
-3588,3390,9902,-3,82,-1632,3
-3294,2841,9655,17,120,-1698,3
-3303,2385,9390,-3,91,-1704,3
-3353,2109,9293,-46,15,-1694,3
-3347,1867,9139,-94,-50,-1664,3
-3381,1727,9059,-104,-88,-1618,3
-3211,1607,8801,-79,-117,-1573,3
-3211,1607,8801,-79,-117,-1573,3
-3342,1259,8910,-18,-152,-1528,3
-3347,1310,9153,75,-146,-1469,3
-3828,1972,9659,199,-111,-1434,3
-4339,3198,9785,285,122,-1596,3
-4202,3203,9328,174,169,-1784,3
-3830,2551,8964,5,142,-1960,3
-3544,1564,8798,-108,107,-2061,3
-3220,829,8395,-163,98,-2069,3
-3220,829,8395,-163,98,-2069,3
-3162,271,7965,-168,60,-2010,3
-3141,-15,7774,-128,-27,-1897,3
-3304,129,7849,-50,-120,-1766,3
-3725,641,7972,66,-177,-1682,3
-4092,1159,8080,175,-213,-1685,3
-4088,1328,8245,232,-263,-1749,3
-3973,1219,8604,224,-334,-1820,3
-3786,933,8987,193,-356,-1882,3
-3589,466,9328,158,-317,-1921,3
-3589,466,9328,158,-317,-1921,3
-3446,301,9535,73,-273,-1916,3
-3582,211,9524,-35,-266,-1886,3
-3603,40,9523,-138,-271,-1860,3
-3427,-284,9408,-203,-262,-1828,3
-3243,-569,9177,-221,-251,-1761,3
-3302,-861,9194,-181,-244,-1676,3
-3303,-979,9280,-76,-210,-1576,3
-3547,-845,9343,63,-149,-1483,3
-3621,-769,9223,196,-101,-1424,3
-3621,-769,9223,196,-101,-1389,3
-3743,-430,9249,302,-75,-1389,3
-3929,-111,9169,336,-78,-1398,3
-3903,80,9263,283,-120,-1439,3
-3984,29,9332,171,-169,-1496,3
-3531,-195,9549,47,-182,-1546,3
-3239,-762,9751,-64,-150,-1539,3
-3114,-1265,9659,-123,-92,-1450,3
-3119,-1598,9543,-147,-40,-1312,3
-3175,-1739,9406,-149,-10,-1158,3
-3175,-1739,9406,-123,13,-1000,3
-3241,-1694,9439,-123,13,-1000,3
-3726,-1246,9221,23,21,1,3
-3798,-1226,9290,20,9,-1,3
-3756,-1265,9209,15,9,-1,3
-3779,-1283,9190,12,8,1,3
-3680,-1363,9281,-11,-6,9,3
-3694,-1479,9287,-27,-12,24,3
-3655,-1494,9276,-26,-10,40,3
-3655,-1494,9276,-17,-1,57,3
-3676,-1487,9340,-17,-1,57,3
-3662,-1502,9237,-12,8,72,3
-3656,-1502,9147,-6,15,85,3
-3597,-1607,9150,-6,9,100,3
-3596,-1700,9170,-8,8,125,3
-3603,-1951,9342,-3,10,160,3
-3632,-2283,9353,30,43,211,3
-3022,-2852,9743,87,102,306,3
-3016,-3571,9753,138,178,500,3
-3016,-3571,9600,178,215,819,3
-2432,-4845,9600,178,215,819,3
-1715,-5438,9510,176,228,1301,3
-1654,-5418,9209,131,233,1871,3
-1710,-5178,9061,56,191,2460,3
-1812,-4619,8827,-16,120,2924,3
-1555,-4593,9002,-79,27,3320,3
-958,-4484,9110,-59,-12,3738,3
-662,-4347,9002,73,35,4166,3
-690,-3844,8596,241,71,4621,3
-910,-3054,8427,387,-24,5034,3
-910,-3054,8427,387,-24,5303,3
-522,-1799,8715,497,-142,5303,3
-708,-534,9365,507,-208,5450,3
-698,672,9554,399,-213,5514,3
-1133,1890,9436,229,-221,5479,3
-1189,2554,9351,67,-260,5376,3
-1184,2914,9440,3,-288,5279,3
-1619,3711,9628,10,-223,5142,3
-1779,4838,9744,1,-108,4909,3
-2544,5318,10120,-60,-27,4596,3
-2544,5318,10120,-60,-27,4596,3
-3049,6212,10502,-59,67,4243,3
-3631,7369,10516,10,246,3812,3
-4151,8618,10024,23,436,3316,3
-4585,9635,9215,-8,552,2765,3
-4621,9839,8340,-145,543,2149,3
-4353,9288,7765,-249,420,1578,3
-4191,8559,7738,-222,335,1090,3
-4047,7891,7732,-106,317,643,3
-3863,7381,7767,-3,290,237,3
-3863,7381,7767,-3,290,237,3
-3659,7123,8061,59,255,-145,3
-3297,6671,8116,58,218,-466,3
-3261,5862,8246,62,175,-718,3
-2943,5018,8450,113,161,-899,3
-2924,4354,8666,172,141,-1005,3
-2927,3777,8724,215,98,-1071,3
-2974,3272,9074,229,43,-1111,3
-3083,2975,9341,221,2,-1121,3
-3208,2788,9564,184,-26,-1125,3
-3208,2788,9564,184,-26,-1125,3
-3154,2533,9529,94,-66,-1113,3
-3198,2100,9560,94,-66,-1113,3
-3288,2021,9611,91,-62,-1072,3
-3437,1948,9487,89,-54,-1028,3
-3589,1978,9364,88,-51,-989,3
-3613,2189,9306,85,-43,-959,3
-3927,2726,9199,77,-26,-958,3
-4016,3121,9177,68,-21,-1016,3
-4127,3276,9206,62,12,-1115,3
-4127,3276,9206,62,46,-1230,3
-3980,3244,9138,62,46,-1230,3
-3945,3162,9158,41,70,-1339,3
-3860,2825,8896,10,81,-1430,3
-3736,2535,8708,-15,67,-1494,3
-3682,2341,8606,-43,28,-1526,3
-3672,2207,8563,-76,-9,-1549,3
-3708,2181,8575,-111,-43,-1561,3
-3524,2011,8243,-159,-78,-1562,3
-3845,1761,8544,-129,-113,-1582,3
-3845,1761,8544,-129,-85,-1597,3
-3931,1825,8736,-29,-85,-1597,3
-3942,1983,8724,83,-22,-1634,3
-4386,2483,8779,175,-1,-1692,3
-4557,2805,8896,204,-17,-1819,3
-4338,2657,8767,162,-44,-1989,3
-3842,2319,8563,59,-116,-2122,3
-3318,1184,8510,-84,-215,-2169,3
-3046,131,8835,-153,-293,-2103,3
-2903,-593,8798,-151,-302,-1941,3
-2903,-593,8798,-111,-295,-1733,3
-3089,-898,8861,-111,-295,-1733,3
-3339,-813,8928,-56,-293,-1531,3
-3605,-440,9055,-5,-282,-1368,3
-3936,-17,9081,52,-271,-1276,3
-4067,247,8975,88,-276,-1249,3
-4285,516,9005,148,-282,-1277,3
-3937,394,9023,219,-254,-1329,3
-3905,313,9314,272,-222,-1351,3
-3872,423,9540,274,-194,-1359,3
-3872,423,9540,209,-165,-1366,3
-3863,391,9712,96,-127,-1364,3
-3732,436,9706,96,-127,-1364,3
-3713,360,9513,-50,-98,-1353,3
-3649,192,9209,-182,-122,-1324,3
-3706,-70,9052,-251,-157,-1284,3
-3791,-1196,9267,12,1,-19,3
-3702,-1231,9189,21,12,-10,3
-3702,-1231,9189,23,6,4,3
-3676,-1210,9150,23,6,4,3
-3781,-1209,9260,23,-17,21,3
-3745,-1210,9403,20,-37,32,3
-3726,-1214,9512,25,-31,42,3
-3714,-1198,9534,23,-12,54,3
-3726,-1215,9552,6,-5,67,3
-3728,-1252,9486,-10,2,80,3
-3649,-1263,9352,-20,19,99,3
-3671,-1287,9164,-20,28,121,3
-3671,-1287,9164,-15,19,138,3
-3638,-1384,9134,-15,19,138,3
-3632,-1438,9156,-6,11,164,3
-3585,-1385,9215,2,10,208,3
-3614,-1372,9156,-4,2,256,3
-3564,-1304,9005,-32,-14,307,3
-3552,-1311,8859,-69,-53,364,3
-3187,-1713,9032,-121,-108,448,3
-2158,-2932,9713,-171,-125,645,3
-1907,-4176,10287,-196,-26,1026,3
-1907,-4176,10998,-317,72,1516,3
-1208,-4515,10998,-317,72,1516,3
-1841,-5261,9981,-394,179,2078,3
-1674,-5263,9756,-424,232,2580,3
-2094,-5033,9072,-434,166,3040,3
-2279,-4156,8723,-406,0,3412,3
-2019,-3844,8871,-271,-133,3669,3
-1532,-3619,9298,-19,-130,3915,3
-1432,-2968,9120,240,-56,4190,3
-1927,-1891,8934,463,-26,4418,3
-1724,-818,8756,569,-46,4527,3
-1724,-818,8756,569,-46,4527,3
-1530,-373,8884,512,-105,4588,3
-1270,248,8705,353,-160,4669,3
-1239,608,8690,120,-253,4736,3
-1210,659,8880,-50,-355,4804,3
-1171,1068,9219,-32,-362,4850,3
-1256,1881,9075,79,-250,4839,3
-2074,3195,8971,117,-230,4736,3
-2481,4578,9302,36,-328,4507,3
-3322,5496,9913,-83,-375,4146,3
-3322,5496,9913,-83,-375,4146,3
-3546,6406,10305,-139,-312,3690,3
-3809,7040,10260,-113,-136,3222,3
-4138,7945,9804,-70,69,2755,3
-4195,8538,8825,-114,196,2232,3
-4476,8496,8236,-217,174,1701,3
-4140,8009,8006,-237,95,1216,3
-3785,7335,7989,-146,86,774,3
-3647,6538,8075,-9,102,389,3
-3364,5940,8102,109,94,73,3
-3364,5940,8102,109,94,73,3
-3287,5210,8449,185,54,-206,3
-3260,4634,9122,263,37,-423,3
-2928,4103,9700,290,45,-587,3
-3022,3832,9936,299,85,-688,3
-3196,3729,10072,265,131,-770,3
-3296,3463,9905,172,141,-849,3
-3287,3404,9792,69,110,-921,3
-3165,3347,9430,-22,83,-993,3
-2858,2991,9188,-51,53,-1060,3
-2858,2991,9188,-51,53,-1060,3
-2950,2441,9305,-15,33,-1064,3
-3109,2453,9206,98,61,-1046,3
-3254,2713,9217,229,91,-1054,3
-3495,2965,9202,301,109,-1080,3
-3475,3030,9058,302,107,-1139,3
-3635,2950,9125,235,66,-1219,3
-3566,2839,9223,151,-18,-1283,3
-3504,2533,9652,106,-54,-1342,3
-3596,2597,9792,143,14,-1390,3
-3596,2597,9792,143,14,-1390,3
-3687,2702,9778,211,123,-1452,3
-3690,2806,9518,197,182,-1535,3
-3694,2733,9372,104,166,-1630,3
-3527,2583,9153,-25,132,-1711,3
-3570,2216,9043,-83,161,-1792,3
-3359,1737,8669,-155,160,-1795,3
-3303,1575,8398,-191,67,-1771,3
-3360,1200,8584,-178,12,-1742,3
-3126,747,8472,-103,28,-1697,3
-3126,747,8472,-103,28,-1627,3
-3366,441,8651,-20,47,-1627,3
-3512,345,8518,78,60,-1546,3
-3750,349,8647,155,34,-1480,3
-3888,608,8843,190,-17,-1425,3
-4076,1314,8992,80,-119,-1452,3
-3594,540,9190,-217,-142,-1587,3
-3594,540,9190,-217,-142,-1587,3
-3578,424,8992,-193,-119,-1552,3
-3668,429,9050,-159,-115,-1513,3
-3620,398,8845,-142,-119,-1485,3
-3772,399,8823,-108,-141,-1468,3
-4030,458,8724,-46,-172,-1472,3
-3806,534,8857,33,-188,-1501,3
-3830,562,9028,119,-183,-1549,3
-3733,394,9267,172,-154,-1588,3
-3733,394,9267,164,-143,-1611,3
-3779,373,9238,164,-143,-1611,3
-3448,116,9293,88,-171,-1623,3
-3391,-384,9318,-1,-183,-1582,3
-3342,-664,9237,-69,-184,-1505,3
-3735,-1234,9305,0,20,-82,3
-3643,-1457,9302,7,27,-106,3
-3531,-1643,9328,18,25,-89,3
-3603,-1697,9266,31,34,-56,3
-3573,-1586,9218,35,47,-15,3
-3661,-1517,9180,31,46,11,3
-3738,-1487,9150,34,40,25,3
-3607,-1584,9205,41,45,30,3
-3633,-1672,9186,47,41,45,3
-3633,-1672,9186,53,38,64,3
-3602,-1694,9256,53,38,64,3
-3616,-1756,9342,47,39,84,3
-3480,-1838,9355,32,42,111,3
-3531,-1927,9284,14,41,147,3
-3492,-2056,9177,-3,33,186,3
-3529,-2025,9078,-17,6,244,3
-3492,-2024,9042,-45,-34,308,3
-3385,-2032,9031,-70,-66,392,3
-3396,-2201,8925,-85,-88,486,3
-3396,-2201,8925,-64,-113,616,3
-3315,-2968,8861,-64,-113,616,3
-2560,-4315,8888,-1,-129,858,3
-1848,-5108,8885,99,-128,1285,3
-1450,-5864,9225,199,-105,1803,3
-1004,-5746,9200,169,-155,2486,3
-1217,-5273,9169,133,-249,3108,3
-868,-4585,9507,65,-326,3598,3
-1176,-3895,9830,15,-347,4002,3
-561,-3115,9854,64,-313,4319,3
-1012,-2343,9805,115,-273,4577,3
-1012,-2343,9805,115,-273,4577,3
-966,-1580,9147,255,-254,4775,3
-1040,-1076,9254,381,-257,4896,3
-829,-407,8842,447,-263,4982,3
-781,61,8595,423,-294,5048,3
-766,428,9079,318,-372,5090,3
-273,837,9519,248,-417,5138,3
-1980,622,9513,252,-388,5219,3
-84,2279,10362,365,-274,5204,3
-894,3046,10987,307,-95,5105,3
-894,3046,10987,307,-95,5105,3
-1288,4115,10835,152,12,4987,3
-2054,5375,10677,-45,51,4778,3
-2900,6352,10260,-217,106,4436,3
-3148,7185,9838,-325,166,4010,3
-3611,8047,8717,-430,291,3572,3
-3918,9006,8194,-483,246,3062,3
-4106,8915,7942,-450,185,2487,3
-4369,9523,7495,-307,108,1817,3
-3864,8500,7550,-149,124,1183,3
-3864,8500,7550,-149,124,1183,3
-3611,7804,7179,-30,105,705,3
-3706,7109,7500,29,9,271,3
-3305,6285,8097,95,-48,-127,3
-3037,5452,8733,167,-52,-469,3
-2663,4254,9475,241,-34,-716,3
-2323,3548,10376,321,42,-875,3
-2371,2916,10826,418,209,-945,3
-2273,2606,10849,415,347,-940,3
-2463,2621,10492,304,402,-897,3
-2463,2621,10492,304,402,-897,3
-2902,2831,10064,133,383,-869,3
-2997,2943,9774,-7,319,-883,3
-3011,2876,9247,-72,254,-908,3
-3200,3031,8836,-47,172,-944,3
-3489,3278,8926,75,112,-1006,3
-3310,3596,8880,215,120,-1090,3
-3538,3688,8900,306,116,-1175,3
-3145,3695,8831,295,70,-1281,3
-3007,2778,9034,232,17,-1364,3
-3007,2778,9034,232,17,-1364,3
-2638,2167,9254,197,-3,-1370,3
-2766,1728,9623,228,37,-1337,3
-2880,1818,9556,213,54,-1271,3
-3215,2295,9541,203,34,-1221,3
-3710,3163,9768,207,36,-1244,3
-3948,4510,9139,27,270,-2106,3
-3948,4510,8780,-141,204,-2339,3
-3600,3834,8780,-141,204,-2339,3
-3044,2711,8617,-263,137,-2501,3
-2642,1417,8525,-301,85,-2537,3
-3262,552,8069,-276,43,-2464,3
-2513,367,8122,-184,-41,-2355,3
-2200,43,8397,-125,-108,-2206,3
-2810,-294,7989,-70,-169,-1997,3
-3125,-35,8244,67,-210,-1853,3
-3424,-57,8415,138,-268,-1740,3
-3424,-57,8415,143,-372,-1667,3
-3524,330,8916,143,-372,-1667,3
-3799,533,9480,105,-375,-1654,3
-3725,653,10003,64,-298,-1679,3
-3401,698,10180,-10,-197,-1703,3
-3491,593,9864,-111,-102,-1711,3
-3217,132,9582,-177,-30,-1720,3
-3736,-721,9037,-166,21,-1688,3
-2916,-1087,9034,-83,20,-1595,3
-2787,-1384,8723,-43,-1,-1425,3
-2787,-1384,8723,9,-54,-1221,3
-2879,-1252,8743,9,-54,-1221,3
-3676,-949,8583,76,-102,-1053,3
-3888,-323,8775,159,-161,-973,3
-3974,111,9055,230,-203,-965,3
-4238,555,9270,274,-207,-1008,3
-4037,993,9244,296,-185,-1107,3
-3684,-1353,9366,-23,-40,-38,3
-3549,-1531,9413,-29,-42,-42,3
-3507,-1579,9400,-13,-34,-31,3
-3511,-1627,9403,12,-16,-15,3
-3497,-1619,9387,27,-7,6,3
-3473,-1672,9458,26,-1,29,3
-3506,-1753,9450,6,-2,53,3
-3437,-1856,9461,-13,-2,79,3
-3437,-1856,9461,-12,9,112,3
-3473,-1889,9416,-12,9,112,3
-3477,-1793,9351,-1,26,145,3
-3491,-1715,9346,12,29,176,3
-3541,-1660,9269,15,26,199,3
-3533,-1607,9233,-1,14,214,3
-3446,-1725,9242,-21,0,229,3
-3414,-1895,9189,-29,-9,257,3
-3389,-2155,9034,-21,-6,301,3
-2884,-2366,9050,-4,-7,379,3
-2945,-2970,9044,8,-6,516,3
-2945,-2970,9044,8,-6,516,3
-2575,-3084,9406,20,21,683,3
-2402,-3871,9276,-40,-3,982,3
-2578,-4649,9464,-45,-54,1351,3
-1805,-5362,9875,41,-17,1776,3
-1232,-5376,9920,156,97,2307,3
-1012,-4934,9555,186,126,2886,3
-616,-4325,9406,156,89,3409,3
-859,-4011,9784,75,49,3850,3
-763,-3641,9979,-20,41,4239,3
-763,-3641,9979,-20,41,4239,3
-795,-2965,9993,-77,62,4568,3
-579,-2172,10228,-125,106,4838,3
-1176,-1380,10394,-194,162,5041,3
-1651,-83,10131,-264,202,5109,3
-1929,628,10046,-294,266,5032,3
-2007,1263,9560,-238,352,4894,3
-2238,1931,8361,-121,420,4745,3
-2140,2446,7051,-2,378,4569,3
-2337,2696,6751,147,222,4406,3
-2337,2696,6751,147,222,4406,3
-1914,3434,6848,262,19,4260,3
-2304,3682,7398,332,-183,4132,3
-2566,4200,8050,394,-303,3985,3
-3151,4967,8684,456,-328,3771,3
-3744,6035,9433,459,-304,3459,3
-4025,7109,10028,375,-227,3048,3
-4819,7765,10283,197,-152,2568,3
-4725,8177,10237,-21,-80,2061,3
-4566,8092,9777,-224,10,1547,3
-4566,8092,9777,-224,10,1547,3
-4393,7539,9236,-364,67,1074,3
-4083,6823,8696,-392,78,673,3
-3961,6224,8464,-298,79,326,3
-3757,5827,8385,-144,94,14,3
-3836,5582,8468,4,98,-276,3
-3342,5005,8531,92,87,-507,3
-3037,4103,8801,164,78,-653,3
-2920,3789,9282,256,113,-736,3
-2974,3439,9336,335,166,-770,3
-2974,3439,9336,335,166,-770,3
-3146,3503,9511,367,178,-791,3
-3555,3800,9505,351,174,-842,3
-3620,4015,9687,266,116,-934,3
-3730,4125,9936,155,78,-1047,3
-3714,3769,9997,86,105,-1172,3
-3683,3389,9885,64,174,-1292,3
-3527,2988,9523,40,208,-1372,3
-3475,2810,9294,14,201,-1416,3
-3479,2608,9117,-25,181,-1441,3
-3479,2608,9117,-25,181,-1441,3
-3486,2346,8970,-69,156,-1455,3
-3537,2292,8793,-102,127,-1456,3
-3559,2005,8694,-103,108,-1473,3
-3714,2024,8703,-95,94,-1483,3
-3639,1836,8388,-96,42,-1477,3
-3756,1834,8569,-72,-22,-1475,3
-3622,1755,8478,-32,-34,-1490,3
-3651,1625,8580,0,-43,-1494,3
-3871,1732,8639,39,-71,-1496,3
-3871,1732,8639,39,-75,-1536,3
-3824,1624,8659,64,-75,-1567,3
-3699,1336,8799,62,-71,-1567,3
-3718,1247,8876,48,-75,-1557,3
-3699,1211,8855,12,-83,-1552,3
-3547,853,8903,-42,-84,-1536,3
-3650,647,9025,-70,-92,-1490,3
-3763,612,9151,-53,-72,-1437,3
-3780,793,9005,-36,-43,-1417,3
-4193,1070,8878,-25,-58,-1425,3
-4194,1166,8713,-32,-91,-1479,3
-4194,1166,8713,-32,-91,-1479,3
-4064,1110,8713,-59,-139,-1539,3
-3888,819,8810,-72,-180,-1579,3
-3687,508,8992,-68,-186,-1587,3
-3750,297,9244,-61,-163,-1562,3
-3838,441,9253,-76,-158,-1530,3
-3915,586,9477,-140,-166,-1521,3
-3888,592,9397,-226,-155,-1536,3
-3980,557,9223,-296,-152,-1551,3
-3980,557,9223,-317,-144,-1586,3
-3918,397,9048,-317,-144,-1586,3
-3723,132,8612,-329,-150,-1621,3
-3607,-430,8574,-270,-182,-1625,3
-3462,-763,8646,-141,-188,-1571,3
-3560,-1713,9303,43,28,45,3
-3659,-1658,9247,21,18,48,3
-3650,-1676,9169,-14,-5,47,3
-3558,-1753,9266,-43,-32,47,3
-3543,-1832,9224,-53,-39,54,3
-3491,-1911,9211,-48,-40,73,3
-3491,-1911,9211,-39,-34,106,3
-3390,-2153,9310,-39,-34,106,3
-3225,-2494,9464,-20,-19,164,3
-3379,-2230,9499,0,25,255,3
-3473,-2325,9332,-13,61,312,3
-3196,-2892,9402,-60,53,387,3
-2813,-3726,9413,-75,51,548,3
-2382,-4402,9351,-38,89,813,3
-2279,-5048,9139,62,118,1159,3
-1518,-5868,9020,108,106,1605,3
-1192,-6063,8920,134,48,2173,3
-1192,-6063,8920,134,48,2173,3
-847,-5783,9169,151,-23,2770,3
-238,-5184,9363,105,-86,3364,3
-752,-5176,9547,101,-105,3900,3
-577,-5271,9543,150,-88,4385,3
-81,-4920,9328,219,-76,4858,3
96,-3444,8945,241,-133,5293,3
393,-2244,8767,171,-270,5583,3
344,-1060,8041,85,-420,5765,3
-562,563,7491,51,-642,5829,3
-562,563,7491,51,-642,5829,3
-1617,2281,7880,100,-921,5692,3
-1331,2982,9049,297,-1038,5414,3
-2545,5319,9875,654,-616,4748,3
-3810,7490,10514,173,0,2921,3
-4366,7975,9620,154,188,2428,3
-4366,7975,9620,154,188,2428,3
-4588,8033,9125,72,203,1905,3
-4412,7612,8812,-21,131,1400,3
-4331,6786,8833,-41,71,940,3
-3945,5928,9050,24,84,540,3
-3547,5093,9365,105,149,224,3
-3543,4435,9617,169,226,-17,3
-3115,3905,9682,156,295,-193,3
-3059,3628,9287,78,324,-301,3
-3135,3205,9058,-6,272,-398,3
-3135,3205,9058,-6,272,-398,3
-3192,3266,9256,-49,208,-496,3
-3293,3199,9165,-48,166,-566,3
-3493,3513,9550,-38,100,-657,3
-3655,3650,9656,-36,95,-790,3
-2933,2793,9787,-23,207,-1004,3
-2933,2793,9787,-23,207,-1004,3
-3077,2463,9506,27,263,-1023,3
-3098,2261,9370,69,296,-1044,3
-3006,2091,9190,75,301,-1056,3
-3006,2091,9190,75,301,-1056,3
-3065,1805,9172,64,283,-1043,3
-3251,1568,9321,110,307,-1029,3
-3498,1532,9220,155,302,-998,3
-3661,1757,9129,198,263,-987,3
-3900,1984,9104,215,248,-1033,3
-3975,2234,8935,199,210,-1098,3
-4078,2483,8853,139,149,-1176,3
-4145,2737,8884,75,86,-1279,3
-3911,2647,8876,4,69,-1407,3
-3911,2647,8876,4,69,-1516,3
-3629,1966,8938,-43,91,-1516,3
-3259,1177,8803,-56,113,-1552,3
-2985,629,8864,-35,124,-1514,3
-2803,206,8752,11,131,-1431,3
-2980,81,8697,54,105,-1293,3
-3328,185,8614,62,32,-1148,3
-3617,491,8946,36,-53,-1047,3
-3830,1037,9004,-14,-104,-995,3
-4131,1372,9008,-68,-128,-1006,3
-4131,1372,9008,-97,-142,-1080,3
-4396,1639,9012,-97,-142,-1080,3
-4499,1940,9097,-112,-134,-1198,3
-4284,2257,9348,-131,-120,-1327,3
-4473,2185,9469,-134,-62,-1492,3
-4277,1883,9220,-127,12,-1678,3
-3976,1450,8873,-129,24,-1822,3
-3505,844,8520,-163,-31,-1893,3
-3174,168,8423,-177,-116,-1880,3
-2965,-285,8368,-133,-177,-1802,3
-2965,-285,8368,-34,-225,-1700,3
-3323,-354,8606,-34,-225,-1700,3
-3525,-132,9004,56,-244,-1619,3
-3603,203,9434,86,-224,-1576,3
-3912,865,9667,29,-191,-1594,3
-4308,1377,9718,-98,-192,-1696,3
-4167,1281,9675,-266,-207,-1864,3
-3699,655,9462,-394,-191,-2010,3
-3299,45,9026,-455,-169,-2076,3
-3012,-644,8629,-441,-173,-2067,3
-3012,-644,8604,-356,-202,-2007,3
-2953,-949,8604,-356,-202,-2007,3
-2977,-1025,8719,-255,-230,-1937,3
-2982,-1343,8758,-138,-234,-1844,3
-2782,-1781,9055,9,-201,-1747,3
-2780,-2045,9310,135,-158,-1596,3
-2931,-2036,9474,226,-139,-1422,3
-2999,-1896,9729,265,-114,-1259,3
-3140,-1621,9946,243,-74,-1125,3
-3273,-1197,10007,167,-42,-1036,3
-3577,-740,9950,34,-39,-1016,3
-3467,-1472,9412,-6,-28,-37,3
-3467,-1406,9460,0,-13,-39,3
-3535,-1304,9467,-9,-8,-50,3
-3529,-1371,9493,-16,2,-74,3
-3437,-1569,9438,-4,25,-87,3
-3439,-1686,9333,12,43,-79,3
-3458,-1710,9221,25,43,-56,3
-3458,-1710,9221,19,31,-34,3
-3470,-1691,9199,19,31,-34,3
-3474,-1672,9209,0,15,-22,3
-3444,-1665,9249,-12,3,-12,3
-3513,-1637,9227,-7,-5,-3,3
-3479,-1636,9399,-2,-15,-6,3
-3418,-1695,9455,0,-9,0,3
-3456,-1716,9364,6,10,10,3
-3438,-1694,9238,10,14,22,3
-3475,-1707,9221,12,8,31,3
-3475,-1707,9209,6,1,31,3
-3509,-1664,9209,6,1,31,3
-3529,-1756,9156,-14,-18,27,3
-3474,-2042,9276,-26,-54,42,3
-3114,-3162,9286,108,24,312,3
-2798,-3717,9235,183,50,475,3
-2766,-4569,9432,282,58,685,3
-2766,-4569,9432,282,58,685,3
-1878,-5015,9676,328,64,1013,3
-1707,-5223,9695,283,57,1454,3
-1515,-5179,9570,183,31,1916,3
-805,-5466,9506,85,0,2401,3
-598,-6046,9434,23,7,2930,3
-583,-6375,9385,73,55,3502,3
1050,-6155,9489,185,61,4122,3
1982,-5864,9732,266,48,4860,3
463,-4539,9718,313,38,5527,3
463,-4539,9718,313,38,5527,3
656,-2956,9285,344,38,5942,3
-22,-1246,9150,351,20,6090,3
422,104,8822,321,-47,6120,3
-507,1929,8390,259,-144,6062,3
-1343,3358,8298,198,-263,5875,3
-1389,4691,8056,122,-362,5590,3
-2061,5276,8854,56,-395,5251,3
-2338,5879,9182,7,-331,4891,3
-2904,6482,9525,54,-222,4500,3
-2904,6482,9525,54,-222,4500,3
-3293,7144,9566,145,-54,4048,3
-3611,7757,9573,197,119,3544,3
-4065,8182,8754,111,191,3047,3
-4352,8659,8484,-29,109,2523,3
-4529,8492,8572,-131,11,1975,3
-4262,8122,8504,-134,7,1452,3
-4250,7646,8361,-60,26,974,3
-3946,6949,8394,20,19,546,3
-3548,6295,8724,103,34,164,3
-3548,6295,8724,103,34,164,3
-3303,5732,8764,127,54,-116,3
-3288,5321,8902,105,27,-345,3
-3150,4760,9335,77,-18,-540,3
-3008,4266,9652,58,-18,-704,3
-2910,3840,9946,61,2,-828,3
-2752,3475,10146,83,23,-917,3
-2531,2919,10393,104,56,-965,3
-2610,2689,10663,117,101,-966,3
-2809,2738,10636,87,142,-962,3
-2809,2738,10636,87,142,-962,3
-3025,2841,10548,14,167,-974,3
-3194,2903,10332,-84,189,-1003,3
-3256,2824,10023,-138,212,-1051,3
-3256,2693,9789,-167,248,-1099,3
-3255,2586,9339,-144,283,-1118,3
-3418,2702,9209,-78,307,-1154,3
-3471,2647,9047,9,347,-1202,3
-3538,2736,8738,61,351,-1255,3
-3667,2626,8579,48,279,-1317,3
-3667,2626,8579,48,186,-1383,3
-3627,2489,8593,1,186,-1383,3
-3661,2389,8577,-43,107,-1449,3
-3477,2333,8493,-70,50,-1506,3
-3284,1936,8455,-80,22,-1550,3
-3377,1532,8633,-50,13,-1585,3
-3219,1326,8610,-20,17,-1591,3
-3190,1083,8688,-4,10,-1572,3
-3133,835,8915,4,-1,-1525,3
-3306,820,8914,-5,4,-1465,3
-3306,820,8914,-6,-3,-1440,3
-3823,1000,8803,-6,-3,-1440,3
-3871,1170,8755,-19,-26,-1468,3
-3731,1134,8711,-29,-67,-1515,3
-3646,868,8975,-14,-95,-1560,3
-3450,735,9315,12,-95,-1582,3
-3243,388,9555,-8,-54,-1553,3
-3383,143,9506,-53,-18,-1493,3
-3365,84,9547,-111,-8,-1435,3
-3705,133,9281,-218,-5,-1365,3
-3705,133,9281,-313,-61,-1328,3
-3872,214,9001,-313,-61,-1328,3
-3780,315,9105,-353,-125,-1318,3
-3546,251,9227,-317,-116,-1318,3
-4063,496,8895,-198,-81,-1308,3
-4104,555,8688,-10,-54,-1375,3
-3920,451,8544,119,-73,-1442,3
-3677,385,8575,185,-138,-1466,3
-3736,441,8851,177,-213,-1472,3
-3591,690,9268,99,-251,-1487,3
-3512,-1506,9135,2,-27,-9,3
-3522,-1444,9248,17,-30,-7,3
-3586,-1414,9401,21,-32,-13,3
-3513,-1497,9470,25,-18,-20,3
-3513,-1497,9470,31,4,-14,3
-3491,-1534,9470,31,4,-14,3
-3528,-1585,9416,42,31,-1,3
-3567,-1532,9337,50,34,16,3
-3565,-1509,9400,39,20,29,3
-3567,-1513,9376,24,17,37,3
-3584,-1557,9262,6,20,49,3
-3595,-1606,9270,-12,1,57,3
-3474,-1709,9274,-21,-9,72,3
-3456,-1823,9416,-12,-9,95,3
-3456,-1823,9416,-8,-1,130,3
-3409,-2033,9481,-8,-1,130,3
-3326,-2254,9629,-11,10,180,3
-3306,-2554,9574,-3,37,257,3
-3049,-2847,9730,2,51,378,3
-3061,-3373,9543,-6,67,552,3
-2591,-3907,9492,-18,61,803,3
-2496,-3867,9272,-45,22,1153,3
-2539,-3623,8940,-137,-49,1462,3
-2194,-4363,8796,-189,-155,1771,3
-2194,-4363,8796,-211,-197,2150,3
-1302,-5420,9207,-211,-197,2150,3
-911,-6664,9609,-106,-130,2630,3
-406,-6318,9766,75,10,3226,3
-611,-5155,9626,216,151,3793,3
-1268,-4182,8975,269,166,4225,3
-98,-3354,9001,266,51,4561,3
-382,-2925,8538,268,-30,4896,3
-9,-2152,8170,295,-124,5169,3
-114,-1637,8179,260,-301,5391,3
77,-1080,8681,296,-431,5583,3
77,-1080,8681,372,-404,5731,3
448,-427,9071,372,-404,5731,3
-5,679,9358,416,-328,5849,3
-153,2021,9537,325,-353,5861,3
-691,2861,10606,171,-367,5757,3
-1190,4072,10857,46,-230,5566,3
-2476,5826,10516,-18,-55,5240,3
-3372,7180,10378,-46,68,4745,3
-3950,8723,10173,-61,317,3519,3
-4424,10054,9513,-61,317,3519,3
-4424,10054,9513,-61,317,3519,3
-4679,11081,8664,-114,373,2850,3
-4246,11191,8208,-180,334,2143,3
-5328,10941,7511,-218,295,1456,3
-4610,9882,7373,-148,224,763,3
-3982,8695,7679,-41,183,175,3
-3588,8173,7651,24,133,-295,3
-3092,7064,7977,39,40,-702,3
-2739,5574,8679,128,-1,-1011,3
-2172,4051,9220,259,56,-1169,3
-2172,4051,9220,259,56,-1169,3
-2390,3376,9582,404,119,-1215,3
-2519,2994,9871,466,146,-1229,3
-2805,2855,10114,411,139,-1230,3
-3064,2891,10169,301,130,-1237,3
-3203,2827,9669,-113,24,-1330,3
-3231,2614,9332,-113,24,-1330,3
-2992,2193,9226,-141,-29,-1345,3
-2967,1655,9463,-62,-23,-1329,3
-2967,1655,9463,-62,-23,-1329,3
-3079,1738,9572,64,48,-1274,3
-3286,2073,9609,141,95,-1232,3
-3480,2394,9592,120,99,-1221,3
-3576,2488,9436,26,73,-1246,3
-3628,2525,9353,-84,28,-1289,3
-3649,2536,9199,-163,-6,-1350,3
-3550,2325,9306,-180,-12,-1415,3
-3708,2526,9115,-141,4,-1491,3
-3031,2513,9481,-97,35,-1590,3
-3031,2513,9481,-65,97,-1630,3
-3822,2065,8959,-65,97,-1630,3
-3317,2094,8963,13,143,-1682,3
-3592,1971,9068,63,176,-1748,3
-3528,1886,8926,75,182,-1805,3
-3601,1829,8873,48,160,-1855,3
-3540,1756,8545,-3,116,-1904,3
-3384,1284,8383,-61,47,-1937,3
-3292,750,8373,-105,-44,-1929,3
-3306,486,8549,-124,-124,-1885,3
-3306,486,8549,-124,-124,-1885,3
-3434,484,8450,-131,-173,-1841,3
-3473,561,8578,-142,-219,-1808,3
-3573,585,8725,-141,-261,-1788,3
-3651,530,8781,-124,-290,-1770,3
-3473,465,8925,-54,-278,-1791,3
-3254,-123,9031,18,-244,-1788,3
-3065,-558,9270,108,-198,-1727,3
-3044,-809,9225,196,-141,-1628,3
-3310,-776,9311,232,-124,-1519,3
-3310,-776,9311,191,-165,-1409,3
-3352,-708,9529,191,-165,-1409,3
-3436,-502,9751,114,-177,-1321,3
-3704,-283,9842,5,-150,-1260,3
-3694,-74,9821,-115,-132,-1243,3
-3664,-46,9603,-236,-135,-1245,3
-3958,150,9516,-287,-131,-1270,3
-3948,215,9209,-274,-116,-1348,3
-3761,-185,9109,-230,-94,-1418,3
-3547,-457,8804,-168,-92,-1426,3
-3333,-1464,9466,10,3,-33,3
-3340,-1548,9461,9,17,-15,3
-3389,-1494,9355,23,34,7,3
-3425,-1476,9294,40,43,26,3
-3335,-1438,9318,40,42,47,3
-3335,-1438,9318,40,42,47,3
-3495,-1396,9247,20,29,62,3
-3530,-1377,9230,-2,9,70,3
-3501,-1447,9332,-17,-7,75,3
-3565,-1537,9333,-21,-18,76,3
-3389,-1603,9449,-14,-13,83,3
-3281,-1813,9481,0,-2,106,3
-3276,-1852,9547,0,4,153,3
-3226,-1940,9536,-4,19,208,3
-3221,-2013,9638,-26,37,268,3
-3221,-2013,9638,-26,37,338,3
-3236,-2036,9565,-61,47,338,3
-3244,-2175,9479,-114,62,484,3
-2289,-3787,8464,168,175,1269,3
-2289,-3787,8464,168,175,1269,3
-1590,-4937,8482,248,76,1647,3
-887,-6065,9158,365,28,2149,3
-887,-6065,9158,485,95,2784,3
-16,-6329,9729,485,95,2784,3
75,-6147,9694,491,172,3486,3
-244,-5782,9802,387,129,4116,3
221,-4924,10533,175,49,4641,3
491,-3829,10954,-84,-3,5086,3
636,-3037,11234,-298,-6,5439,3
407,-2086,10803,-345,73,5709,3
452,-666,9193,-227,189,5875,3
32,795,7795,-98,145,5936,3
32,795,7795,-55,-96,5898,3
-1116,2535,7324,-55,-96,5898,3
-1562,4079,7898,-77,-350,5684,3
-2404,5184,9102,-54,-422,5373,3
-2946,6776,9337,31,-292,4964,3
-3643,8154,9468,133,-67,4437,3
-4485,9650,9273,175,135,3835,3
-3471,10931,9458,109,237,3158,3
-5820,10768,8441,-70,246,2453,3
-5895,10340,8528,-77,137,1662,3
-5895,10340,8928,-50,129,917,3
-4796,8877,8928,-50,129,917,3
-4141,7215,9044,26,208,360,3
-3780,5885,9148,105,270,-54,3
-3004,4418,9177,183,338,-310,3
-3104,3927,9340,241,387,-445,3
-2866,3158,9254,210,368,-493,3
-3042,2553,9688,113,280,-492,3
-3031,2231,9854,22,221,-478,3
-3242,2160,9750,-50,207,-442,3
-3475,2324,9353,-115,182,-413,3
-3475,2324,9353,-115,182,-413,3
-3671,2522,9044,-164,111,-417,3
-3926,2659,8989,-151,41,-447,3
-4098,2801,8879,-67,14,-511,3
-3786,2834,8714,40,18,-594,3
-3503,2603,8776,133,31,-640,3
-3576,2628,8889,219,48,-659,3
-3694,2859,9068,276,69,-700,3
-3633,2872,9330,274,81,-769,3
-3570,2780,9389,224,95,-834,3
-3570,2780,9389,224,95,-834,3
-3546,2599,9342,145,89,-885,3
-3655,2557,9226,76,67,-929,3
-3871,2703,9226,32,58,-979,3
-4088,3095,9105,3,43,-1049,3
-4201,3399,8953,12,36,-1165,3
-4220,3552,8870,31,45,-1328,3
-4007,3030,8757,50,65,-1495,3
-3866,2600,8647,81,88,-1634,3
-3647,2129,8554,76,72,-1730,3
-3647,2129,8554,76,72,-1730,3
-3521,1854,8648,34,10,-1767,3
-3531,1671,8589,-20,-42,-1786,3
-3564,1540,8504,-68,-92,-1788,3
-3605,1619,8550,-98,-158,-1789,3
-3571,1534,8579,-131,-213,-1805,3
-3615,1311,8919,-98,-233,-1822,3
-3749,1319,9116,-5,-188,-1846,3
-3609,1241,9278,75,-108,-1878,3
-3634,1207,8989,91,-62,-1906,3
-3634,1207,8989,91,-62,-1906,3
-3430,789,9000,59,-83,-1934,3
-3198,315,8841,18,-109,-1923,3
-3140,-199,8813,-7,-150,-1856,3
-3113,-278,8805,-29,-226,-1734,3
-3548,63,9086,-17,-285,-1625,3
-3827,345,9296,20,-277,-1586,3
-3901,534,9365,56,-256,-1613,3
-3775,574,9413,41,-253,-1646,3
-3799,589,9521,26,-237,-1683,3
-3799,589,9521,26,-237,-1683,3
-3735,568,9251,-5,-199,-1745,3
-3513,88,9148,-46,-198,-1802,3
-2976,-522,9064,-76,-226,-1769,3
-3122,-821,9169,-56,-233,-1674,3
-3279,-617,9110,-3,-213,-1580,3
-3507,-508,8979,21,-213,-1528,3
-3467,-576,8962,29,-237,-1488,3
-3391,-664,9095,42,-258,-1442,3
-3743,-125,9742,109,-207,-1422,3
-3743,-125,9742,109,-207,-1422,3
-3536,-1826,9303,-23,-102,-104,3
-3536,-1826,9303,-16,-110,-87,3
-3363,-1765,9426,-16,-110,-87,3
-3321,-1801,9455,-18,-87,-63,3
-3334,-1871,9359,-17,-80,-25,3
-3320,-1984,9437,-12,-85,5,3
-3151,-2070,9608,2,-51,42,3
-3164,-2123,9521,10,0,95,3
-3270,-2182,9476,11,26,146,3
-3198,-2245,9409,17,39,197,3
-3221,-2354,9365,34,61,259,3
-3221,-2354,9365,67,100,340,3
-3059,-2621,9306,67,100,340,3
-2998,-2967,9207,111,148,452,3
-2799,-3487,9148,167,180,619,3
-2490,-3957,9231,163,167,839,3
-2098,-4938,9133,97,87,1160,3
-1423,-5681,9391,31,-13,1601,3
-893,-5862,9548,0,-29,2146,3
-1094,-5779,9285,4,4,2690,3
-528,-5861,9371,12,-26,3187,3
-528,-5861,8416,73,-36,3758,3
-2417,-6336,8416,73,-36,3758,3
1909,-5343,10405,258,-72,4342,3
1890,-4978,10709,265,3,5043,3
-282,-3323,9877,240,59,5695,3
-703,-1485,8891,266,59,5995,3
-689,-197,8411,334,11,5990,3
-68,733,8208,306,-62,5957,3
-2980,1980,7807,288,-209,5841,3
-1774,3312,8001,394,-364,5517,3
-2059,3473,9311,506,-348,5137,3
-2059,3473,9311,506,-348,5137,3
-2336,4610,9475,560,-197,4843,3
-2423,5529,9744,530,-40,4497,3
-2815,5583,9310,365,43,4136,3
-2986,5233,9396,182,1,3806,3
-2805,5335,9394,57,-41,3519,3
-3658,6235,9774,59,7,3200,3
-3946,7387,9349,92,132,2791,3
-4541,8256,8924,39,177,2307,3
-4511,8615,8647,-62,150,1774,3
-4511,8615,8647,-62,150,1774,3
-4437,8193,8410,-142,132,1233,3
-4198,7472,8236,-166,146,741,3
-3771,6587,8078,-135,165,313,3
-3237,5753,7960,-116,156,-20,3
-2872,4989,7934,-52,138,-267,3
-2612,3993,8153,29,113,-408,3
-2744,3724,8514,156,110,-490,3
-2818,3573,8933,273,118,-563,3
-3016,3669,9349,356,139,-638,3
-3016,3669,9349,356,139,-638,3
-3402,3986,9535,387,150,-726,3
-3512,4400,9911,359,142,-841,3
-3641,4735,10040,290,143,-982,3
-3700,4853,9987,200,163,-1153,3
-3053,4474,9774,111,202,-1324,3
-3157,3608,9689,61,222,-1444,3
-2977,3078,9378,40,208,-1493,3
-2855,2580,9333,9,143,-1505,3
-3004,2437,9337,-32,66,-1473,3
-3004,2437,9337,-32,66,-1473,3
-3140,2483,9198,-96,0,-1437,3
-3286,2725,9176,-135,-53,-1426,3
-3621,2790,9300,-106,-61,-1454,3
-3919,2968,9384,0,-20,-1529,3
-4005,3069,9389,111,40,-1648,3
-4000,2883,9255,158,73,-1791,3
-3815,2707,9192,114,70,-1921,3
-3476,2236,8933,-2,39,-2017,3
-3126,1713,8764,-121,-20,-2056,3
-3126,1713,8764,-121,-20,-2056,3
-2995,1207,8779,-209,-64,-2029,3
-3042,905,8635,-255,-89,-1966,3
-3095,763,8395,-262,-124,-1894,3
-3434,703,8346,-245,-178,-1821,3
-3065,619,8478,-182,-209,-1772,3
-3067,238,8598,-72,-178,-1711,3
-3285,-137,8723,87,-130,-1626,3
-3340,-110,8974,235,-102,-1539,3
-3477,88,9202,307,-80,-1460,3
-3477,88,9202,307,-80,-1408,3
-3647,235,9303,288,-84,-1408,3
-3753,576,9409,182,-123,-1392,3
-4074,1091,9626,25,-175,-1412,3
-4083,1389,9592,-135,-189,-1496,3
-3973,1148,9345,-244,-164,-1602,3
-3739,630,9091,-276,-134,-1674,3
-3522,222,8693,-244,-127,-1687,3
-3292,-234,8567,-199,-158,-1645,3
-3141,-691,8654,-130,-204,-1544,3
-3141,-691,8654,-25,-213,-1417,3
-3231,-772,8870,-25,-213,-1417,3
-3415,-576,9060,74,-204,-1309,3
-3635,-256,9232,140,-200,-1243,3
-3830,-87,9439,151,-204,-1228,3
-3881,119,9628,127,-200,-1246,3
-3754,293,9719,75,-182,-1296,3
-3738,157,9878,-7,-145,-1355,3
-3457,-232,9690,-111,-106,-1373,3
-3524,-607,9500,-204,-100,-1361,3
-3524,-607,9500,-271,-114,-1304,3
-3343,-952,9372,-271,-114,-1304,3
-3505,-1536,9455,9,-25,1,3
-3512,-1561,9359,12,-4,7,3
-3536,-1618,9370,14,-9,18,3
-3489,-1631,9445,9,-14,26,3
-3513,-1689,9483,9,-3,35,3
-3519,-1764,9424,10,11,46,3
-3467,-1762,9361,10,21,64,3
-3463,-1743,9311,6,21,85,3
-3487,-1716,9275,-3,15,108,3
-3487,-1716,9147,-2,16,131,3
-3542,-1576,9147,-2,16,131,3
-3570,-1499,9119,-10,5,136,3
-3555,-1584,9139,-16,-3,142,3
-3523,-1607,9089,-9,4,153,3
-3596,-1739,9108,-3,9,172,3
-3460,-1835,9104,5,-10,202,3
-3166,-2127,9285,-10,-34,260,3
-3208,-2611,9270,-53,-60,362,3
-2767,-3796,9336,-68,-85,523,3
-2767,-3796,9336,-68,-85,523,3
-2204,-4901,9653,-36,-62,821,3
-1847,-5705,9706,29,9,1252,3
-1125,-6551,9774,97,73,1801,3
-969,-6830,9546,152,79,2439,3
-681,-6295,9567,207,64,3044,3
-380,-5905,9387,232,65,3589,3
-311,-5723,9507,262,68,4097,3
-742,-4760,9597,317,64,4550,3
-119,-3391,9670,379,63,4891,3
-119,-3391,9670,379,63,4891,3
-817,-2280,9889,450,133,5124,3
-671,-954,9760,465,219,5260,3
-1070,230,9979,386,264,5308,3
-890,1162,9479,155,279,5307,3
-853,1442,8685,-119,192,5291,3
-625,1657,8270,-324,61,5286,3
-933,2047,7864,-392,-8,5265,3
-1604,2969,7779,-369,-119,5195,3
-2255,4207,8196,-280,-228,4981,3
-2973,5196,9038,-105,-240,4653,3
-4954,9266,8763,9,-14,2549,3
-4956,9111,8995,-147,-95,1940,3
-4579,8543,9122,-167,-44,1372,3
-4358,7767,8968,-126,72,878,3
-3876,6795,8622,-105,117,456,3
-3876,6795,8622,-114,83,109,3
-3617,6053,8712,-114,83,109,3
-3302,5343,8909,-147,28,-138,3
-3164,4845,9218,-129,13,-332,3
-3170,4442,9466,-43,50,-496,3
-2974,3895,9665,84,153,-639,3
-3116,3605,9755,167,229,-729,3
-3145,3463,9443,171,237,-789,3
-3268,3260,9345,98,180,-847,3
-3232,2896,9315,18,109,-895,3
-3232,2896,9315,7,77,-927,3
-3378,2536,9475,7,77,-927,3
-3300,2471,9608,86,135,-956,3
-3525,2571,9598,166,183,-965,3
-3797,3010,9495,239,198,-1010,3
-3991,3256,9351,259,215,-1103,3
-3993,3444,9085,222,194,-1216,3
-4064,3412,8908,124,108,-1331,3
-3899,3290,8926,26,17,-1454,3
-3867,3259,8743,-46,-31,-1569,3
-3867,3259,8586,-92,-80,-1690,3
-3385,2982,8586,-92,-80,-1690,3
-2914,2143,8880,-112,-88,-1759,3
-3147,1622,8991,-65,-38,-1737,3
-3220,1527,8812,12,0,-1696,3
-3397,1333,8829,69,9,-1681,3
-3393,1328,8713,87,-4,-1664,3
-3639,1402,8583,69,-64,-1657,3
-3439,1238,8605,19,-145,-1674,3
-3282,569,8877,-1,-191,-1670,3
-3365,210,9128,35,-173,-1614,3
-3365,210,9128,35,-173,-1614,3
-3637,259,9119,45,-151,-1559,3
-3731,468,9427,-15,-163,-1515,3
-3879,886,9567,-125,-180,-1503,3
-4150,1302,9771,-191,-161,-1540,3
-4024,1621,9663,-211,-83,-1628,3
-4106,1683,9296,-209,-1,-1731,3
-3901,1367,8889,-201,32,-1844,3
-3454,748,8443,-184,6,-1902,3
-3158,13,8143,-131,-48,-1877,3
-3158,13,8143,-131,-48,-1877,3
-3099,-553,8080,-37,-120,-1789,3
-2993,-821,8715,58,-175,-1651,3
-3105,-726,9181,91,-190,-1502,3
-3525,-370,9454,64,-184,-1389,3
-3774,-19,9683,-9,-180,-1345,3
-3815,74,9783,-95,-141,-1341,3
-3887,238,9546,-159,-100,-1367,3
-4009,276,9270,-185,-94,-1433,3
-3905,99,9298,-160,-94,-1515,3
-3905,99,9298,-160,-94,-1515,3
-3733,-5,9209,-107,-69,-1569,3
-3846,-38,8896,-52,-42,-1624,3
-3783,-123,8538,-17,-64,-1687,3
-3506,-530,8525,-34,-157,-1718,3
-3209,-1025,8651,-63,-247,-1673,3
-2926,-1536,8962,-65,-262,-1568,3
-2810,-1846,9068,-42,-217,-1406,3
-3533,-1298,9230,18,27,-60,3
-3468,-1435,9253,10,12,-82,3
-3468,-1435,9253,10,12,-82,3
-3396,-1568,9229,0,4,-91,3
-3391,-1743,9236,-8,-4,-83,3
-3416,-1812,9334,-12,-14,-62,3
-3353,-1865,9346,-16,-15,-41,3
-3376,-1933,9381,-23,-21,-20,3
-3333,-1992,9469,-28,-27,8,3
-3336,-2018,9485,-23,-17,42,3
-3311,-2006,9522,-9,0,73,3
-3349,-2006,9521,-4,13,103,3
-3349,-2006,9521,-4,13,137,3
-3345,-2075,9483,-5,20,137,3
-3359,-2091,9393,-7,34,167,3
-3251,-2213,9351,0,39,203,3
-3169,-2337,9456,4,31,254,3
-2950,-2568,9468,14,38,340,3
-2864,-2831,9414,43,73,461,3
-2889,-2878,9457,84,117,618,3
-2890,-2829,9371,107,147,787,3
-2807,-3030,9335,86,147,965,3
-2807,-3030,9335,86,70,1205,3
-2738,-3614,9476,5,70,1205,3
-2333,-4347,9975,-84,18,1528,3
-1600,-4942,9854,-133,83,1923,3
-1446,-5662,9529,-149,138,2401,3
-945,-5893,9260,-78,168,2937,3
-1178,-5085,8879,-5,163,3470,3
-1124,-4232,8641,66,76,3897,3
-620,-3645,9022,148,-16,4255,3
86,-3522,9101,239,-45,4641,3
86,-3522,9101,401,-38,5037,3
-496,-2959,8764,401,-38,5037,3
-214,-1942,8238,566,-41,5352,3
-533,-765,8389,598,-105,5530,3
-915,800,8520,444,-232,5591,3
-1360,1829,8761,227,-363,5519,3
-1628,2804,8788,69,-437,5335,3
-2204,3683,9073,23,-466,5106,3
-2065,4461,9686,73,-447,4821,3
-2504,5058,10341,147,-350,4549,3
-2504,5058,10341,246,-184,4225,3
-3040,6290,10392,246,-184,4225,3
-3772,7094,10291,324,27,3771,3
-4110,7439,9617,333,196,3260,3
-4475,7834,9379,235,218,2719,3
-4441,7694,9178,51,149,2207,3
-4303,7487,9154,-67,108,1738,3
-4080,6948,9068,-92,145,1305,3
-3757,6323,8827,-58,222,941,3
-3597,5729,8513,-20,284,630,3
-3491,5160,8117,-30,258,401,3
-3491,5160,8117,-30,258,401,3
-3550,4809,7959,-14,205,197,3
-3403,4392,7813,42,132,20,3
-3414,3981,8185,114,31,-124,3
-3336,3969,8744,135,-70,-262,3
-3389,4017,9567,114,-125,-414,3
-3360,4058,9894,61,-108,-540,3
-3475,4156,10037,30,-31,-692,3
-3456,4023,10041,3,41,-852,3
-3351,3856,10059,9,113,-998,3
-3351,3856,10059,9,113,-998,3
-3163,3499,9894,49,218,-1135,3
-3189,3174,9795,117,334,-1238,3
-3111,2909,9501,170,436,-1320,3
-3303,2924,9355,166,471,-1386,3
-3302,2967,9098,134,413,-1411,3
-3527,3136,9047,78,318,-1428,3
-3621,3111,8999,39,261,-1468,3
-3748,2968,8935,32,250,-1536,3
-3856,2848,8874,37,238,-1613,3
-3856,2848,8874,37,238,-1613,3
-3934,2809,8664,17,199,-1698,3
-4015,2807,8589,-35,113,-1792,3
-3833,2723,8713,-119,18,-1890,3
-3943,2685,8577,-201,-25,-1983,3
-3303,2268,8449,-256,-51,-2087,3
-3220,1288,8584,-267,-65,-2122,3
-3090,790,8660,-201,-51,-2078,3
-3035,369,8657,-99,-28,-1996,3
-3184,222,8806,-3,-12,-1897,3
-3184,222,8806,-3,-12,-1897,3
-3375,257,8818,43,-12,-1805,3
-3574,239,8858,37,-48,-1729,3
-3706,334,8897,6,-114,-1660,3
-3724,452,8933,-36,-168,-1620,3
-3917,452,8995,-64,-200,-1600,3
-3905,576,9187,-89,-234,-1599,3
-3838,397,9332,-118,-222,-1611,3
-3757,125,9315,-137,-197,-1613,3
-3695,-52,9384,-159,-182,-1601,3
-3695,-52,9384,-159,-182,-1601,3
-3517,-279,9146,-197,-177,-1558,3
-3542,-583,9157,-210,-179,-1488,3
-3394,-723,9038,-195,-188,-1398,3
-3509,-899,9123,-125,-172,-1307,3
-3492,-922,9077,-40,-144,-1215,3
-3834,-734,9080,73,-132,-1133,3
-3968,-312,9181,169,-108,-1112,3
-4046,-102,9180,198,-100,-1125,3
-4029,-39,9251,188,-113,-1156,3
-4029,-39,9251,188,-113,-1156,3
-3555,-1575,9375,-5,-19,-53,3
-3565,-1639,9332,-2,-9,-37,3
-3594,-1631,9261,-1,-10,-26,3
-3594,-1631,9261,-1,-19,-19,3
-3574,-1629,9257,-1,-19,-19,3
-3617,-1690,9275,-3,-24,-12,3
-3598,-1674,9375,2,-31,-8,3
-3576,-1793,9387,14,-29,0,3
-3641,-1824,9451,34,-16,12,3
-3585,-1855,9559,38,0,26,3
-3517,-1901,9579,20,8,54,3
-3515,-1899,9560,3,27,84,3
-3516,-1987,9558,-7,50,112,3
-3516,-1987,9558,-19,67,148,3
-3433,-2123,9450,-19,67,148,3
-3436,-2213,9385,-34,62,196,3
-3311,-2294,9364,-54,45,257,3
-3104,-2600,9360,-75,32,340,3
-2694,-3340,9488,-66,44,473,3
-2480,-4707,9619,-20,95,737,3
-1771,-5475,9463,64,164,1177,3
-1737,-6045,8885,144,221,1709,3
-1816,-5818,8828,170,170,2239,3
-1816,-5818,8640,129,64,2725,3
-1800,-5405,8640,129,64,2725,3
-1801,-4573,8511,36,-78,3127,3
-1301,-4625,8439,-4,-241,3516,3
-32,-4588,8892,-6,-346,3941,3
264,-4734,9206,70,-351,4428,3
853,-4626,9156,222,-277,4984,3
56,-3693,9284,416,-189,5453,3
254,-2512,9053,553,-142,5753,3
516,-1524,8790,572,-153,5953,3
547,-415,8575,476,-274,6115,3
547,-415,8575,476,-274,6115,3
-55,608,9086,350,-428,6189,3
-424,1887,10109,229,-534,6150,3
-1178,3726,10673,123,-515,5993,3
-2132,5376,10768,24,-400,5654,3
-2526,6632,10506,-80,-270,5189,3
-2474,7415,10378,-116,-149,4698,3
-3573,8796,10073,-25,28,4203,3
-4121,10643,9026,60,232,3602,3
-4485,11353,7941,-37,266,2862,3
-4485,11353,7941,-37,266,2862,3
-4266,10878,7612,-250,73,2102,3
-3750,9516,7764,-329,-75,1438,3
-3305,8574,7678,-257,-76,885,3
-2970,7106,7591,-141,-105,468,3
-2709,6501,8151,-37,-142,131,3
-2624,6104,8866,62,-141,-170,3
-2566,5861,9601,125,-108,-422,3
-2435,5330,10082,107,-42,-642,3
-2282,4724,9970,42,29,-811,3
-2282,4724,9970,42,29,-811,3
-2359,4013,9954,-10,63,-942,3
-2291,3259,9921,-45,81,-998,3
-2488,2745,10091,-12,114,-1023,3
-2639,2474,10039,35,172,-1037,3
-2892,2526,9814,53,191,-1056,3
-3092,2608,9858,25,152,-1089,3
-3157,2583,9883,11,131,-1127,3
-3434,2610,9830,48,152,-1180,3
-3461,2579,9744,112,202,-1256,3
-3461,2579,9744,112,202,-1256,3
-3515,2873,9583,111,185,-1315,3
-3488,3153,9535,94,141,-1392,3
-3333,3016,9835,95,161,-1497,3
-3215,2888,9743,125,235,-1602,3
-3357,2926,9716,147,318,-1706,3
-2934,2766,9340,142,364,-1789,3
-2837,2108,9273,120,395,-1838,3
-2772,1757,9257,131,428,-1835,3
-3166,1720,8962,165,455,-1820,3
-3613,1898,8123,-42,69,-1973,3
-3510,1398,8432,-77,-39,-2009,3
-3272,953,8518,-57,-58,-2015,3
-3327,641,8683,0,-43,-1995,3
-3439,562,8734,38,-34,-1947,3
-3523,780,8900,34,-60,-1907,3
-3523,780,8900,34,-97,-1904,3
-3735,1117,9042,-16,-97,-1904,3
-3689,1244,9043,-89,-136,-1937,3
-3481,1040,9189,-142,-150,-1975,3
-3349,777,9116,-138,-120,-1990,3
-3311,312,8883,-82,-78,-1976,3
-3332,-29,8762,-26,-75,-1930,3
-3213,-232,8647,26,-102,-1861,3
-3509,-130,8618,69,-149,-1805,3
-3629,169,8829,71,-226,-1769,3
-3629,169,8829,52,-292,-1782,3
-3724,406,9120,52,-292,-1782,3
-3742,514,9393,17,-298,-1825,3
-3604,338,9493,3,-266,-1882,3
-3229,-253,9494,-25,-217,-1904,3
-3022,-747,9381,-64,-180,-1853,3
-2903,-1185,9215,-93,-161,-1755,3
-2938,-1572,9241,-114,-159,-1623,3
-2914,-1740,9298,-117,-156,-1463,3
-3238,-1380,9402,-95,-156,-1322,3
-3238,-1380,9402,-81,-155,-1234,3
-3450,-1062,9627,-81,-155,-1234,3
-3603,-863,9713,-77,-124,-1195,3
-3481,-897,9573,-80,-81,-1172,3
-3553,-1450,9343,-28,-58,-125,3
-3474,-1654,9381,1,-42,-127,3
-3464,-1704,9469,32,-11,-111,3
-3540,-1621,9489,42,17,-95,3
-3540,-1621,9489,42,17,-95,3
-3571,-1572,9327,32,38,-94,3
-3492,-1442,9321,23,38,-101,3
-3719,-1354,9353,19,32,-114,3
-3699,-1423,9329,18,30,-156,3
-3543,-1621,9343,21,30,-182,3
-3614,-1824,9358,20,25,-180,3
-3506,-2030,9390,12,28,-159,3
-3468,-2179,9421,6,44,-115,3
-3485,-2230,9400,11,57,-64,3
-3485,-2230,9400,11,64,-12,3
-3487,-2221,9366,29,64,-12,3
-3432,-2262,9327,51,82,33,3
-3422,-2352,9225,62,90,81,3
-3394,-2421,9170,42,83,135,3
-3385,-2532,9123,18,70,197,3
-3345,-2669,9114,7,68,266,3
-3116,-2780,9107,18,73,367,3
-3074,-2920,9043,23,61,508,3
-2734,-3004,8969,12,30,695,3
-2734,-3004,8969,-18,-10,951,3
-2470,-3596,8988,-18,-10,951,3
-1781,-4505,8951,-45,-36,1291,3
-1793,-5684,9266,-45,-45,1759,3
-1558,-6104,9316,-14,-53,2300,3
-948,-6547,9318,3,-68,2887,3
-768,-6709,9171,13,-124,3530,3
41,-6360,9170,41,-224,4172,3
1190,-5953,9065,120,-284,4821,3
1185,-5029,8705,249,-324,5459,3
902,-3894,8300,362,-464,5985,3
902,-3894,8300,362,-464,5985,3
470,-2008,8974,422,-610,6286,3
-303,458,9675,281,-664,6353,3
-531,1802,9705,-56,-763,6200,3
-1172,2488,10118,-293,-866,5943,3
-1336,3184,10606,-247,-801,5655,3
-1970,3994,10761,13,-537,5310,3
-2745,5477,10565,270,-216,4916,3
-2799,6643,9901,295,-29,4431,3
-3215,7008,9393,159,-3,3916,3
-3215,7008,9393,159,-3,3916,3
-3309,7325,8874,51,-34,3431,3
-3705,7389,8644,48,-25,2962,3
-3919,7665,8262,114,15,2490,3
-4131,7840,8099,155,6,1996,3
-3934,7600,8092,155,-23,1505,3
-3622,6851,8201,148,-23,1058,3
-3209,5923,8471,166,13,688,3
-2803,5224,8602,174,51,420,3
-2852,4594,8906,151,58,210,3
-2852,4594,8906,151,58,210,3
-2807,4173,9092,120,39,34,3
-2859,4118,9560,106,21,-127,3
-2912,4051,10070,91,25,-274,3
-3227,4336,10541,84,75,-426,3
-3641,4827,10676,62,148,-630,3
-3491,5136,10649,25,221,-886,3
-3189,4676,10341,-42,289,-1111,3
-3296,4255,10100,-76,335,-1286,3
-3171,3731,9921,-79,368,-1436,3
-3171,3731,9921,-79,368,-1436,3
-3053,3200,9753,-62,375,-1546,3
-2956,2861,9771,-42,370,-1601,3
-3083,2651,9623,-21,364,-1617,3
-3257,2916,9378,-9,346,-1652,3
-2938,2597,9357,-12,320,-1703,3
-2912,2118,9485,-3,304,-1720,3
-3115,1807,9513,47,326,-1709,3
-3315,1899,9573,109,360,-1708,3
-3546,2522,8829,-73,322,-2126,3
-3424,1664,8793,-73,322,-2126,3
-2999,1127,8405,-92,326,-2151,3
-2986,412,8249,-124,274,-2136,3
-2927,-62,8297,-182,186,-2037,3
-2997,-238,8325,-235,86,-1901,3
-3364,-202,8349,-271,-7,-1784,3
-3364,-202,8349,-271,-7,-1784,3
-3588,-59,8510,-280,-88,-1707,3
-4085,161,8422,-233,-131,-1684,3
-3931,504,8714,-126,-155,-1710,3
-3980,619,8721,-23,-141,-1754,3
-3841,392,8696,56,-119,-1844,3
-3611,-56,8854,110,-111,-1908,3
-3460,-301,8896,122,-108,-1902,3
-3304,-390,9006,94,-117,-1853,3
-3306,-509,9175,17,-134,-1788,3
-3306,-509,9175,17,-134,-1721,3
-3455,-269,9270,-70,-152,-1721,3
-3645,-172,9145,-148,-156,-1691,3
-3431,-433,8926,-191,-150,-1682,3
-3211,-1086,8975,-158,-132,-1646,3
